Data from USB4F035431__15__14-25-55-547.txt Node

Date: Wed Feb 12 14:25:55 CET 2025
User: Versuch 234
Spectrometer: USB4F03543
Trigger mode: 4
Integration Time (sec): 1,000000E-1
Scans to average: 1
Electric dark correction enabled: true
Nonlinearity correction enabled: false
Boxcar width: 0
XAxis mode: Wavelengths
Number of Pixels in Spectrum: 3648
>>>>>Begin Spectral Data<<<<<
179,969	-110,08
180,181	-110,08
180,394	-110,08
180,606	-218,62
180,819	-232,96
181,031	37,38
181,243	92,67
181,456	-32,26
181,668	23,04
181,88	45,57
182,093	-36,35
182,305	-101,89
182,518	-24,06
182,73	14,85
182,942	-3,58
183,155	-73,21
183,367	57,86
183,579	78,33
183,791	-1,54
184,004	2,56
184,216	-19,97
184,428	10,75
184,641	35,33
184,853	-79,36
185,065	-91,65
185,277	23,04
185,49	82,43
185,702	37,38
185,914	-19,97
186,126	51,71
186,338	27,14
186,551	25,09
186,763	12,8
186,975	8,7
187,187	0,51
187,399	-11,78
187,612	23,04
187,824	12,8
188,036	41,47
188,248	-1,54
188,46	74,24
188,672	59,9
188,885	-11,78
189,097	84,48
189,309	-19,97
189,521	-7,68
189,733	20,99
189,945	16,9
190,157	4,61
190,369	-58,88
190,581	18,94
190,794	-17,92
191,006	-95,74
191,218	-7,68
191,43	76,29
191,642	-79,36
191,854	-11,78
192,066	72,19
192,278	-19,97
192,49	-105,98
192,702	-56,83
192,914	45,57
193,126	-15,87
193,338	-28,16
193,55	90,62
193,762	12,8
193,974	-40,45
194,186	-48,64
194,398	20,99
194,61	-24,06
194,822	43,52
195,034	68,09
195,246	43,52
195,457	25,09
195,669	86,53
195,881	57,86
196,093	-30,21
196,305	55,81
196,517	-40,45
196,729	35,33
196,941	-19,97
197,153	53,76
197,365	82,43
197,576	-34,3
197,788	-73,21
198	45,57
198,212	35,33
198,424	100,86
198,636	-38,4
198,847	-36,35
199,059	6,66
199,271	-3,58
199,483	61,95
199,695	-13,82
199,906	53,76
200,118	-52,74
200,33	49,66
200,542	324,09
200,753	-15,87
200,965	-44,54
201,177	8,7
201,389	18,94
201,6	49,66
201,812	-22,02
202,024	-24,06
202,235	-60,93
202,447	76,29
202,659	39,42
202,871	27,14
203,082	12,8
203,294	20,99
203,506	-46,59
203,717	18,94
203,929	61,95
204,141	-48,64
204,352	64
204,564	-44,54
204,775	-56,83
204,987	94,72
205,199	-13,82
205,41	45,57
205,622	12,8
205,833	-11,78
206,045	61,95
206,257	-30,21
206,468	-54,78
206,68	0,51
206,891	-3,58
207,103	-3,58
207,314	-48,64
207,526	20,99
207,737	-30,21
207,949	59,9
208,16	35,33
208,372	66,05
208,583	-22,02
208,795	-7,68
209,006	-19,97
209,218	-19,97
209,429	-97,79
209,641	-17,92
209,852	-22,02
210,064	51,71
210,275	-19,97
210,487	53,76
210,698	84,48
210,909	-19,97
211,121	0,51
211,332	45,57
211,544	57,86
211,755	12,8
211,966	51,71
212,178	-19,97
212,389	94,72
212,6	45,57
212,812	47,62
213,023	-7,68
213,234	12,8
213,446	51,71
213,657	-7,68
213,868	37,38
214,08	117,25
214,291	25,09
214,502	2,56
214,714	-5,63
214,925	-52,74
215,136	-75,26
215,347	12,8
215,559	-54,78
215,77	33,28
215,981	45,57
216,192	-60,93
216,404	2,56
216,615	23,04
216,826	4,61
217,037	10,75
217,249	29,18
217,46	100,86
217,671	-13,82
217,882	-11,78
218,093	49,66
218,304	-13,82
218,516	61,95
218,727	-28,16
218,938	-62,98
219,149	117,25
219,36	20,99
219,571	14,85
219,782	-15,87
219,993	25,09
220,205	-22,02
220,416	25,09
220,627	12,8
220,838	94,72
221,049	231,93
221,26	80,38
221,471	8,7
221,682	-34,3
221,893	-11,78
222,104	-19,97
222,315	-40,45
222,526	20,99
222,737	33,28
222,948	-5,63
223,159	-13,82
223,37	-22,02
223,581	-40,45
223,792	25,09
224,003	-36,35
224,214	35,33
224,425	51,71
224,636	-28,16
224,847	107,01
225,058	-3,58
225,269	-5,63
225,48	-17,92
225,691	-103,93
225,902	14,85
226,112	4,61
226,323	-52,74
226,534	29,18
226,745	-28,16
226,956	-77,31
227,167	10,75
227,378	-87,55
227,589	-28,16
227,799	152,06
228,01	-3,58
228,221	-28,16
228,432	-40,45
228,643	35,33
228,853	68,09
229,064	-7,68
229,275	-15,87
229,486	-42,5
229,697	-112,13
229,907	-69,12
230,118	-56,83
230,329	-101,89
230,54	25,09
230,75	-7,68
230,961	10,75
231,172	-42,5
231,383	-36,35
231,593	-75,26
231,804	2,56
232,015	-32,26
232,225	-46,59
232,436	53,76
232,647	61,95
232,857	86,53
233,068	-28,16
233,279	43,52
233,489	2,56
233,7	-5,63
233,91	-24,06
234,121	55,81
234,332	0,51
234,542	12,8
234,753	-24,06
234,964	-32,26
235,174	10,75
235,385	-11,78
235,595	-3,58
235,806	-7,68
236,016	-52,74
236,227	-50,69
236,437	-60,93
236,648	-11,78
236,858	25,09
237,069	-19,97
237,279	-19,97
237,49	20,99
237,7	-52,74
237,911	-65,02
238,121	10,75
238,332	-7,68
238,542	39,42
238,753	-32,26
238,963	-7,68
239,174	4,61
239,384	-40,45
239,595	10,75
239,805	-44,54
240,015	-56,83
240,226	-30,21
240,436	-1,54
240,647	-5,63
240,857	45,57
241,067	-7,68
241,278	90,62
241,488	6,66
241,698	16,9
241,909	29,18
242,119	14,85
242,329	18,94
242,54	74,24
242,75	27,14
242,96	-62,98
243,171	-58,88
243,381	68,09
243,591	-58,88
243,801	51,71
244,012	39,42
244,222	20,99
244,432	-19,97
244,642	-58,88
244,853	-85,5
245,063	27,14
245,273	-11,78
245,483	10,75
245,694	0,51
245,904	25,09
246,114	29,18
246,324	-13,82
246,534	78,33
246,744	-42,5
246,955	-87,55
247,165	84,48
247,375	29,18
247,585	-19,97
247,795	14,85
248,005	41,47
248,215	51,71
248,425	68,09
248,636	164,35
248,846	-32,26
249,056	-79,36
249,266	-17,92
249,476	2,56
249,686	31,23
249,896	-52,74
250,106	-77,31
250,316	64
250,526	57,86
250,736	-32,26
250,946	92,67
251,156	92,67
251,366	27,14
251,576	-32,26
251,786	61,95
251,996	-69,12
252,206	-56,83
252,416	-1,54
252,626	-75,26
252,836	-69,12
253,046	-11,78
253,256	43,52
253,466	25,09
253,676	4,61
253,885	27,14
254,095	12,8
254,305	-13,82
254,515	-52,74
254,725	23,04
254,935	-11,78
255,145	45,57
255,355	-13,82
255,564	4,61
255,774	8,7
255,984	84,48
256,194	20,99
256,404	27,14
256,614	12,8
256,823	45,57
257,033	-36,35
257,243	35,33
257,453	41,47
257,662	-48,64
257,872	39,42
258,082	-60,93
258,292	-42,5
258,501	37,38
258,711	133,63
258,921	68,09
259,131	-44,54
259,34	-15,87
259,55	47,62
259,76	-54,78
259,969	4,61
260,179	-34,3
260,389	-50,69
260,598	92,67
260,808	64
261,018	-46,59
261,227	33,28
261,437	-44,54
261,647	100,86
261,856	-56,83
262,066	39,42
262,275	59,9
262,485	-46,59
262,694	25,09
262,904	-13,82
263,114	74,24
263,323	-75,26
263,533	78,33
263,742	0,51
263,952	-30,21
264,161	-60,93
264,371	-40,45
264,58	4,61
264,79	-54,78
264,999	8,7
265,209	6,66
265,418	25,09
265,628	74,24
265,837	35,33
266,047	68,09
266,256	45,57
266,466	-28,16
266,675	-11,78
266,884	57,86
267,094	-5,63
267,303	61,95
267,513	14,85
267,722	59,9
267,931	4,61
268,141	-5,63
268,35	43,52
268,559	29,18
268,769	-11,78
268,978	-52,74
269,187	90,62
269,397	2,56
269,606	-67,07
269,815	-62,98
270,025	-13,82
270,234	43,52
270,443	-89,6
270,653	-40,45
270,862	-3,58
271,071	16,9
271,28	-69,12
271,49	-19,97
271,699	4,61
271,908	68,09
272,117	-46,59
272,327	-34,3
272,536	-30,21
272,745	0,51
272,954	-44,54
273,163	31,23
273,372	57,86
273,582	-22,02
273,791	-15,87
274	-118,27
274,209	6,66
274,418	4,61
274,627	68,09
274,836	0,51
275,046	6,66
275,255	102,91
275,464	4,61
275,673	-19,97
275,882	68,09
276,091	-5,63
276,3	55,81
276,509	27,14
276,718	-46,59
276,927	12,8
277,136	115,2
277,345	2,56
277,554	20,99
277,763	55,81
277,972	94,72
278,181	27,14
278,39	4,61
278,599	12,8
278,808	-13,82
279,017	82,43
279,226	-114,17
279,435	-36,35
279,644	-17,92
279,853	37,38
280,062	168,45
280,271	45,57
280,48	-83,45
280,688	10,75
280,897	64
281,106	-46,59
281,315	-7,68
281,524	-15,87
281,733	-15,87
281,942	-11,78
282,151	-11,78
282,359	45,57
282,568	-11,78
282,777	49,66
282,986	-15,87
283,195	23,04
283,403	-5,63
283,612	-56,83
283,821	29,18
284,03	-28,16
284,238	-40,45
284,447	61,95
284,656	12,8
284,865	84,48
285,073	59,9
285,282	-28,16
285,491	-9,73
285,699	-42,5
285,908	74,24
286,117	53,76
286,325	49,66
286,534	117,25
286,743	23,04
286,951	2,56
287,16	117,25
287,369	4,61
287,577	76,29
287,786	-3,58
287,995	-11,78
288,203	0,51
288,412	12,8
288,62	35,33
288,829	66,05
289,037	33,28
289,246	-11,78
289,455	-22,02
289,663	4,61
289,872	59,9
290,08	14,85
290,289	100,86
290,497	-56,83
290,706	86,53
290,914	-128,51
291,123	-62,98
291,331	70,14
291,54	88,57
291,748	64
291,957	55,81
292,165	14,85
292,373	-28,16
292,582	-28,16
292,79	27,14
292,999	45,57
293,207	-19,97
293,415	-3,58
293,624	-136,7
293,832	10,75
294,041	49,66
294,249	6,66
294,457	-28,16
294,666	12,8
294,874	-17,92
295,082	-3,58
295,291	14,85
295,499	35,33
295,707	45,57
295,915	4,61
296,124	-22,02
296,332	29,18
296,54	68,09
296,749	74,24
296,957	25,09
297,165	-32,26
297,373	8,7
297,581	47,62
297,79	16,9
297,998	-36,35
298,206	-65,02
298,414	4,61
298,622	-36,35
298,831	29,18
299,039	20,99
299,247	37,38
299,455	-71,17
299,663	98,81
299,871	6,66
300,08	2,56
300,288	14,85
300,496	-19,97
300,704	4,61
300,912	25,09
301,12	2,56
301,328	8,7
301,536	-44,54
301,744	-62,98
301,952	-1,54
302,16	-40,45
302,368	-22,02
302,576	-13,82
302,784	31,23
302,992	-65,02
303,2	-22,02
303,408	33,28
303,616	-7,68
303,824	45,57
304,032	100,86
304,24	27,14
304,448	16,9
304,656	-11,78
304,864	90,62
305,072	98,81
305,28	18,94
305,488	0,51
305,696	-60,93
305,904	31,23
306,111	-73,21
306,319	4,61
306,527	4,61
306,735	35,33
306,943	59,9
307,151	-65,02
307,359	-42,5
307,566	84,48
307,774	-3,58
307,982	12,8
308,19	-58,88
308,398	10,75
308,605	-5,63
308,813	-17,92
309,021	-62,98
309,229	8,7
309,436	-22,02
309,644	16,9
309,852	74,24
310,06	123,39
310,267	-50,69
310,475	-46,59
310,683	72,19
310,89	66,05
311,098	2,56
311,306	-19,97
311,513	-5,63
311,721	-22,02
311,929	-3,58
312,136	29,18
312,344	0,51
312,552	98,81
312,759	-44,54
312,967	12,8
313,174	57,86
313,382	-3,58
313,589	27,14
313,797	61,95
314,005	20,99
314,212	14,85
314,42	-56,83
314,627	20,99
314,835	-5,63
315,042	-19,97
315,25	-97,79
315,457	-52,74
315,665	-93,69
315,872	53,76
316,08	20,99
316,287	-19,97
316,495	254,46
316,702	4,61
316,909	-77,31
317,117	49,66
317,324	74,24
317,532	111,1
317,739	12,8
317,946	-40,45
318,154	-9,73
318,361	-22,02
318,569	-24,06
318,776	-65,02
318,983	4,61
319,191	-26,11
319,398	-52,74
319,605	-5,63
319,813	35,33
320,02	-38,4
320,227	37,38
320,434	96,77
320,642	-38,4
320,849	-3,58
321,056	20,99
321,264	25,09
321,471	6,66
321,678	35,33
321,885	10,75
322,092	107,01
322,3	-52,74
322,507	16,9
322,714	-19,97
322,921	-22,02
323,128	-46,59
323,336	-28,16
323,543	25,09
323,75	59,9
323,957	20,99
324,164	-46,59
324,371	55,81
324,578	-52,74
324,786	55,81
324,993	-50,69
325,2	39,42
325,407	-24,06
325,614	49,66
325,821	107,01
326,028	152,06
326,235	8,7
326,442	88,57
326,649	-44,54
326,856	12,8
327,063	-44,54
327,27	10,75
327,477	-5,63
327,684	-67,07
327,891	-52,74
328,098	49,66
328,305	-44,54
328,512	-19,97
328,719	33,28
328,926	127,49
329,133	-79,36
329,34	96,77
329,546	10,75
329,753	35,33
329,96	-19,97
330,167	0,51
330,374	27,14
330,581	20,99
330,788	-108,03
330,995	25,09
331,201	-77,31
331,408	-26,11
331,615	-28,16
331,822	45,57
332,029	-52,74
332,235	-19,97
332,442	-22,02
332,649	10,75
332,856	-52,74
333,062	29,18
333,269	-73,21
333,476	45,57
333,683	-13,82
333,889	102,91
334,096	61,95
334,303	37,38
334,509	27,14
334,716	74,24
334,923	35,33
335,129	-7,68
335,336	39,42
335,543	-32,26
335,749	53,76
335,956	78,33
336,163	14,85
336,369	-28,16
336,576	57,86
336,782	55,81
336,989	12,8
337,196	-7,68
337,402	-58,88
337,609	-34,3
337,815	-73,21
338,022	49,66
338,228	78,33
338,435	190,97
338,641	53,76
338,848	104,96
339,054	86,53
339,261	49,66
339,467	-77,31
339,674	70,14
339,88	4,61
340,087	20,99
340,293	29,18
340,5	96,77
340,706	102,91
340,912	4,61
341,119	-19,97
341,325	-46,59
341,532	-15,87
341,738	18,94
341,944	-32,26
342,151	57,86
342,357	53,76
342,563	53,76
342,77	74,24
342,976	-15,87
343,182	217,6
343,389	-19,97
343,595	-1,54
343,801	-17,92
344,007	78,33
344,214	-13,82
344,42	-11,78
344,626	64
344,832	12,8
345,039	59,9
345,245	102,91
345,451	-22,02
345,657	31,23
345,864	-5,63
346,07	66,05
346,276	127,49
346,482	139,77
346,688	119,29
346,894	31,23
347,1	76,29
347,307	102,91
347,513	102,91
347,719	84,48
347,925	43,52
348,131	-19,97
348,337	160,25
348,543	84,48
348,749	31,23
348,955	168,45
349,161	-28,16
349,367	104,96
349,573	51,71
349,779	68,09
349,985	139,77
350,191	49,66
350,397	129,53
350,603	45,57
350,809	88,57
351,015	47,62
351,221	35,33
351,427	86,53
351,633	61,95
351,839	57,86
352,045	113,15
352,251	160,25
352,457	100,86
352,663	61,95
352,869	0,51
353,075	14,85
353,28	70,14
353,486	100,86
353,692	64
353,898	104,96
354,104	12,8
354,31	131,58
354,515	43,52
354,721	96,77
354,927	70,14
355,133	119,29
355,339	90,62
355,544	82,43
355,75	86,53
355,956	70,14
356,162	66,05
356,367	47,62
356,573	107,01
356,779	25,09
356,984	152,06
357,19	111,1
357,396	150,01
357,602	231,93
357,807	129,53
358,013	80,38
358,218	135,68
358,424	51,71
358,63	68,09
358,835	170,49
359,041	47,62
359,247	29,18
359,452	51,71
359,658	76,29
359,863	86,53
360,069	70,14
360,274	127,49
360,48	231,93
360,685	127,49
360,891	170,49
361,097	61,95
361,302	119,29
361,508	143,87
361,713	100,86
361,918	188,93
362,124	78,33
362,329	59,9
362,535	127,49
362,74	119,29
362,946	160,25
363,151	268,8
363,357	508,41
363,562	690,68
363,767	1346,03
363,973	2312,67
364,178	3150,29
364,383	3721,67
364,589	4282,81
364,794	4016,58
365	3619,27
365,205	2791,89
365,41	2398,68
365,615	1853,92
365,821	1448,43
366,026	1190,38
366,231	877,04
366,437	553,46
366,642	305,66
366,847	315,9
367,052	137,73
367,258	90,62
367,463	141,82
367,668	121,34
367,873	166,4
368,078	182,78
368,284	37,38
368,489	115,2
368,694	123,39
368,899	111,1
369,104	78,33
369,309	137,73
369,515	-36,35
369,72	113,15
369,925	100,86
370,13	145,92
370,335	78,33
370,54	35,33
370,745	92,67
370,95	119,29
371,155	162,3
371,36	156,16
371,565	90,62
371,77	70,14
371,975	18,94
372,18	152,06
372,385	166,4
372,59	133,63
372,795	27,14
373	184,83
373,205	201,21
373,41	111,1
373,615	35,33
373,82	29,18
374,025	25,09
374,23	45,57
374,435	127,49
374,64	84,48
374,845	170,49
375,05	113,15
375,254	119,29
375,459	109,05
375,664	78,33
375,869	74,24
376,074	109,05
376,279	45,57
376,483	88,57
376,688	20,99
376,893	203,26
377,098	45,57
377,303	129,53
377,507	156,16
377,712	160,25
377,917	152,06
378,122	143,87
378,326	117,25
378,531	125,44
378,736	137,73
378,94	92,67
379,145	154,11
379,35	178,69
379,554	121,34
379,759	107,01
379,964	174,59
380,168	100,86
380,373	168,45
380,578	156,16
380,782	172,54
380,987	199,16
381,191	135,68
381,396	135,68
381,601	154,11
381,805	119,29
382,01	180,73
382,214	90,62
382,419	49,66
382,623	49,66
382,828	66,05
383,032	53,76
383,237	59,9
383,441	82,43
383,646	94,72
383,85	70,14
384,055	156,16
384,259	43,52
384,464	27,14
384,668	51,71
384,872	70,14
385,077	182,78
385,281	66,05
385,486	55,81
385,69	45,57
385,894	37,38
386,099	100,86
386,303	119,29
386,507	94,72
386,712	86,53
386,916	100,86
387,12	2,56
387,325	94,72
387,529	51,71
387,733	96,77
387,937	2,56
388,142	10,75
388,346	10,75
388,55	70,14
388,754	20,99
388,959	61,95
389,163	45,57
389,367	33,28
389,571	53,76
389,775	86,53
389,98	127,49
390,184	74,24
390,388	31,23
390,592	109,05
390,796	68,09
391	104,96
391,204	20,99
391,409	-44,54
391,613	29,18
391,817	-40,45
392,021	107,01
392,225	66,05
392,429	4,61
392,633	8,7
392,837	0,51
393,041	35,33
393,245	41,47
393,449	10,75
393,653	8,7
393,857	94,72
394,061	53,76
394,265	74,24
394,469	33,28
394,673	53,76
394,877	57,86
395,081	57,86
395,285	164,35
395,489	37,38
395,693	-19,97
395,896	25,09
396,1	61,95
396,304	78,33
396,508	25,09
396,712	94,72
396,916	20,99
397,12	76,29
397,323	37,38
397,527	41,47
397,731	45,57
397,935	82,43
398,139	49,66
398,342	115,2
398,546	12,8
398,75	57,86
398,954	51,71
399,157	80,38
399,361	117,25
399,565	-24,06
399,769	143,87
399,972	88,57
400,176	29,18
400,38	117,25
400,583	39,42
400,787	113,15
400,991	-5,63
401,194	76,29
401,398	8,7
401,601	137,73
401,805	137,73
402,009	127,49
402,212	176,64
402,416	360,95
402,619	446,97
402,823	987,63
403,026	1845,73
403,23	3580,36
403,433	6404,51
403,637	8061,32
403,841	9116,02
404,044	9400,69
404,247	8505,73
404,451	5767,59
404,654	3426,76
404,858	2312,67
405,061	1460,71
405,265	1108,46
405,468	889,33
405,672	588,28
405,875	420,35
406,078	436,73
406,282	492,02
406,485	565,75
406,689	735,73
406,892	823,8
407,095	782,84
407,299	780,79
407,502	608,76
407,705	348,67
407,909	240,12
408,112	199,16
408,315	203,26
408,518	281,08
408,722	152,06
408,925	102,91
409,128	119,29
409,331	123,39
409,535	184,83
409,738	145,92
409,941	162,3
410,144	80,38
410,347	141,82
410,551	197,12
410,754	98,81
410,957	100,86
411,16	86,53
411,363	156,16
411,566	90,62
411,769	180,73
411,973	150,01
412,176	180,73
412,379	225,79
412,582	117,25
412,785	193,02
412,988	51,71
413,191	195,07
413,394	160,25
413,597	12,8
413,8	127,49
414,003	223,74
414,206	119,29
414,409	150,01
414,612	166,4
414,815	160,25
415,018	82,43
415,221	170,49
415,424	205,31
415,627	100,86
415,83	141,82
416,033	195,07
416,235	147,97
416,438	217,6
416,641	219,64
416,844	98,81
417,047	127,49
417,25	113,15
417,453	150,01
417,655	115,2
417,858	221,69
418,061	100,86
418,264	121,34
418,467	154,11
418,669	233,98
418,872	238,08
419,075	143,87
419,278	35,33
419,48	135,68
419,683	94,72
419,886	53,76
420,089	193,02
420,291	205,31
420,494	172,54
420,697	129,53
420,899	164,35
421,102	143,87
421,305	147,97
421,507	109,05
421,71	219,64
421,912	258,56
422,115	143,87
422,318	135,68
422,52	164,35
422,723	119,29
422,925	242,17
423,128	221,69
423,33	115,2
423,533	201,21
423,735	133,63
423,938	170,49
424,14	160,25
424,343	279,04
424,545	197,12
424,748	231,93
424,95	176,64
425,153	166,4
425,355	96,77
425,558	281,08
425,76	285,18
425,962	221,69
426,165	231,93
426,367	156,16
426,57	264,7
426,772	160,25
426,974	266,75
427,177	221,69
427,379	184,83
427,581	340,47
427,784	176,64
427,986	203,26
428,188	229,88
428,39	156,16
428,593	184,83
428,795	213,5
428,997	313,85
429,2	209,4
429,402	186,88
429,604	182,78
429,806	233,98
430,008	303,61
430,211	322,04
430,413	244,22
430,615	262,65
430,817	301,56
431,019	303,61
431,221	305,66
431,423	217,6
431,626	375,29
431,828	295,42
432,03	209,4
432,232	406,01
432,434	369,15
432,636	463,35
432,838	467,45
433,04	508,41
433,242	702,97
433,444	1108,46
433,646	1999,33
433,848	3289,55
434,05	6717,85
434,252	12288,32
434,454	20691,14
434,656	27467,87
434,858	30406,7
435,06	30773,29
435,262	26103,92
435,464	18716,9
435,666	11450,71
435,868	7506,32
436,07	5527,98
436,271	4377,02
436,473	3303,89
436,675	2755,03
436,877	2105,82
437,079	1624,55
437,281	1239,53
437,482	963,06
437,684	752,12
437,886	526,84
438,088	549,37
438,29	403,96
438,491	393,72
438,693	252,41
438,895	377,34
439,097	510,46
439,298	340,47
439,5	346,62
439,702	354,81
439,903	379,39
440,105	356,86
440,307	453,11
440,508	424,44
440,71	338,43
440,912	320
441,113	313,85
441,315	379,39
441,517	348,67
441,718	420,35
441,92	397,82
442,121	395,77
442,323	360,95
442,524	309,76
442,726	395,77
442,928	303,61
443,129	371,19
443,331	387,58
443,532	422,39
443,734	373,24
443,935	395,77
444,136	297,47
444,338	387,58
444,539	338,43
444,741	408,06
444,942	352,76
445,144	401,91
445,345	397,82
445,546	279,04
445,748	356,86
445,949	379,39
446,151	354,81
446,352	332,28
446,553	446,97
446,755	291,32
446,956	342,52
447,157	414,2
447,359	360,95
447,56	336,38
447,761	352,76
447,962	350,71
448,164	412,15
448,365	420,35
448,566	416,25
448,767	322,04
448,969	408,06
449,17	389,63
449,371	393,72
449,572	430,59
449,773	332,28
449,974	379,39
450,176	438,78
450,377	352,76
450,578	481,78
450,779	424,44
450,98	344,57
451,181	389,63
451,382	365,05
451,583	389,63
451,784	338,43
451,986	346,62
452,187	420,35
452,388	367,1
452,589	406,01
452,79	363
452,991	311,8
453,192	377,34
453,393	432,63
453,594	365,05
453,795	322,04
453,995	334,33
454,196	338,43
454,397	391,67
454,598	340,47
454,799	297,47
455	328,19
455,201	322,04
455,402	309,76
455,603	383,48
455,804	444,92
456,004	328,19
456,205	340,47
456,406	379,39
456,607	340,47
456,808	463,35
457,008	338,43
457,209	270,84
457,41	410,11
457,611	358,91
457,811	561,66
458,012	332,28
458,213	295,42
458,414	377,34
458,614	365,05
458,815	322,04
459,016	453,11
459,216	330,23
459,417	371,19
459,618	352,76
459,818	315,9
460,019	356,86
460,22	356,86
460,42	389,63
460,621	336,38
460,821	354,81
461,022	406,01
461,223	363
461,423	274,94
461,624	324,09
461,824	369,15
462,025	340,47
462,225	430,59
462,426	369,15
462,626	363
462,827	420,35
463,027	315,9
463,228	428,54
463,428	379,39
463,628	373,24
463,829	379,39
464,029	444,92
464,23	391,67
464,43	391,67
464,63	338,43
464,831	332,28
465,031	492,02
465,231	307,71
465,432	453,11
465,632	621,05
465,832	305,66
466,033	377,34
466,233	391,67
466,433	518,65
466,634	459,26
466,834	537,08
467,034	326,14
467,234	410,11
467,435	455,16
467,635	338,43
467,835	352,76
468,035	375,29
468,235	387,58
468,436	365,05
468,636	344,57
468,836	324,09
469,036	360,95
469,236	406,01
469,436	371,19
469,636	453,11
469,836	342,52
470,037	367,1
470,237	299,52
470,437	442,87
470,637	377,34
470,837	356,86
471,037	352,76
471,237	395,77
471,437	440,83
471,637	455,16
471,837	365,05
472,037	360,95
472,237	451,07
472,437	414,2
472,637	526,84
472,837	381,43
473,036	406,01
473,236	463,35
473,436	463,35
473,636	401,91
473,836	424,44
474,036	440,83
474,236	348,67
474,436	371,19
474,635	496,12
474,835	430,59
475,035	494,07
475,235	395,77
475,435	457,21
475,634	385,53
475,834	477,69
476,034	492,02
476,234	465,4
476,433	420,35
476,633	588,28
476,833	516,6
477,033	489,98
477,232	518,65
477,432	516,6
477,632	588,28
477,831	637,43
478,031	643,57
478,231	625,14
478,43	643,57
478,63	614,9
478,829	707,06
479,029	762,36
479,229	795,12
479,428	838,13
479,628	907,76
479,827	1006,06
480,027	995,82
480,226	1206,77
480,426	1280,49
480,625	1436,14
480,825	1548,78
481,024	1722,85
481,224	1903,07
481,423	2101,73
481,623	2335,2
481,822	2441,69
482,021	2847,19
482,221	3054,03
482,42	3447,24
482,62	3869,12
482,819	4004,29
483,018	4235,71
483,218	4536,76
483,417	4958,64
483,616	5151,15
483,816	5398,96
484,015	6029,73
484,214	6400,41
484,414	6912,41
484,613	7395,73
484,812	7522,7
485,011	7895,43
485,211	7911,82
485,41	8202,63
485,609	8382,85
485,808	8266,11
486,008	8405,38
486,207	8190,34
486,406	8354,18
486,605	8255,87
486,804	8188,29
487,003	7793,03
487,203	7938,44
487,402	7436,69
487,601	7174,55
487,8	7133,59
487,999	6967,7
488,198	6697,37
488,397	6564,25
488,596	6242,72
488,795	6078,88
488,994	6017,44
489,193	5902,76
489,392	5915,05
489,591	6035,88
489,79	5820,84
489,989	5829,03
490,188	5853,61
490,387	5829,03
490,586	5482,92
490,785	5736,87
490,984	5319,09
491,183	5294,51
491,382	5233,07
491,581	5099,95
491,779	4837,81
491,978	4751,8
492,177	4721,08
492,376	4676,02
492,575	4585,91
492,774	4362,69
492,972	4256,19
493,171	4184,51
493,37	4053,44
493,569	4100,55
493,768	3764,68
493,966	3752,39
494,165	3672,52
494,364	3631,56
494,563	3443,15
494,761	3437
494,96	3334,61
495,159	3277,26
495,357	3129,81
495,556	3074,51
495,755	3133,9
495,953	3031,51
496,152	2879,96
496,35	2935,25
496,549	2728,41
496,748	2722,26
496,946	2642,39
497,145	2615,77
497,343	2413,02
497,542	2298,33
497,74	2339,29
497,939	2202,08
498,137	2142,69
498,336	2087,39
498,534	1950,18
498,733	2001,38
498,931	1804,77
499,13	1790,44
499,328	1665,51
499,527	1800,68
499,725	1452,52
499,924	1393,13
500,122	1462,76
500,32	1487,34
500,519	1249,77
500,717	1200,62
500,915	1135,09
501,114	1239,53
501,312	1118,7
501,51	1161,71
501,709	1122,8
501,907	1004,02
502,105	958,96
502,304	967,15
502,502	1016,3
502,7	852,47
502,898	913,91
503,097	879,09
503,295	903,67
503,493	791,03
503,691	825,84
503,889	688,63
504,088	637,43
504,286	766,45
504,484	672,25
504,682	678,39
504,88	739,83
505,078	674,29
505,276	637,43
505,474	711,16
505,672	535,03
505,871	639,48
506,069	698,87
506,267	575,99
506,465	596,47
506,663	514,55
506,861	516,6
507,059	631,29
507,257	559,61
507,455	608,76
507,653	653,81
507,851	659,96
508,049	516,6
508,246	758,26
508,444	662,01
508,642	623,09
508,84	571,9
509,038	578,04
509,236	627,19
509,434	545,27
509,632	688,63
509,829	604,66
510,027	553,46
510,225	604,66
510,423	602,61
510,621	555,51
510,818	569,85
511,016	551,42
511,214	627,19
511,412	543,22
511,609	508,41
511,807	561,66
512,005	684,53
512,203	575,99
512,4	565,75
512,598	555,51
512,796	557,56
512,993	561,66
513,191	514,55
513,389	528,89
513,586	492,02
513,784	547,32
513,981	565,75
514,179	502,26
514,377	504,31
514,574	561,66
514,772	420,35
514,969	512,5
515,167	481,78
515,364	592,37
515,562	514,55
515,759	584,18
515,957	389,63
516,154	389,63
516,352	586,23
516,549	504,31
516,746	455,16
516,944	498,17
517,141	487,93
517,339	461,3
517,536	463,35
517,733	422,39
517,931	420,35
518,128	430,59
518,325	436,73
518,523	395,77
518,72	528,89
518,917	496,12
519,115	471,54
519,312	479,74
519,509	498,17
519,707	438,78
519,904	494,07
520,101	430,59
520,298	494,07
520,495	451,07
520,693	428,54
520,89	471,54
521,087	471,54
521,284	473,59
521,481	436,73
521,678	446,97
521,876	461,3
522,073	449,02
522,27	389,63
522,467	391,67
522,664	328,19
522,861	424,44
523,058	408,06
523,255	344,57
523,452	469,5
523,649	301,56
523,846	379,39
524,043	371,19
524,24	510,46
524,437	459,26
524,634	461,3
524,831	438,78
525,028	483,83
525,225	352,76
525,422	449,02
525,619	500,22
525,816	381,43
526,013	561,66
526,209	575,99
526,406	455,16
526,603	463,35
526,8	471,54
526,997	449,02
527,194	416,25
527,39	442,87
527,587	516,6
527,784	475,64
527,981	539,13
528,177	479,74
528,374	451,07
528,571	608,76
528,768	489,98
528,964	508,41
529,161	541,18
529,358	686,58
529,554	461,3
529,751	528,89
529,948	471,54
530,144	610,81
530,341	619
530,537	662,01
530,734	766,45
530,931	848,37
531,127	973,3
531,324	1339,88
531,52	1528,3
531,717	1724,9
531,913	1935,84
532,11	2011,62
532,306	2081,25
532,503	1894,88
532,699	1810,92
532,896	1757,67
533,092	1722,85
533,289	1493,48
533,485	2167,26
533,682	1733,09
533,878	1569,26
534,074	1604,07
534,271	1898,98
534,467	2066,91
534,664	2261,47
534,86	2257,37
535,056	2605,53
535,253	3115,47
535,449	3582,41
535,645	3934,66
535,841	4387,26
536,038	5040,56
536,234	5335,47
536,43	5855,65
536,626	6367,65
536,823	6558,11
537,019	6830,49
537,215	7186,83
537,411	7932,29
537,607	8290,69
537,804	9406,83
538	10273,12
538,196	11747,66
538,392	13484,34
538,588	15792,4
538,784	17832,18
538,98	20580,55
539,176	23664,79
539,373	28661,83
539,569	33067,02
539,765	38332,34
539,961	42477,43
540,157	45350,73
540,353	46200,64
540,549	47390,51
540,745	45147,98
540,941	43370,35
541,137	41422,73
541,333	39739,3
541,528	38244,28
541,724	37302,21
541,92	37035,98
542,116	36333,53
542,312	36411,35
542,508	37302,21
542,704	37009,36
542,9	36995,02
543,096	36968,4
543,291	37427,14
543,487	37916,61
543,683	40945,55
543,879	47150,9
544,075	56506,02
544,27	62670,4
544,466	63479,35
544,662	64341,55
544,858	64390,7
545,053	64390,7
545,249	64390,7
545,445	64017,97
545,64	53511,89
545,836	42401,66
546,032	37402,57
546,227	35037,16
546,423	32761,87
546,619	30951,46
546,814	29751,35
547,01	27856,98
547,205	26794,09
547,401	24778,89
547,597	23392,41
547,792	22165,68
547,988	21223,61
548,183	19155,16
548,379	18600,16
548,574	17340,66
548,77	16576,77
548,965	15108,38
549,161	14586,15
549,356	13553,97
549,552	12773,69
549,747	12153,16
549,942	11215,19
550,138	10758,49
550,333	9894,25
550,529	9488,75
550,724	8991,09
550,919	8262,02
551,115	7997,83
551,31	7559,56
551,505	7229,84
551,701	6744,47
551,896	6529,44
552,091	6125,99
552,287	5896,61
552,482	5374,38
552,677	5220,78
552,872	4678,07
553,067	4401,6
553,263	4067,78
553,458	3862,98
553,653	3568,07
553,848	3461,58
554,043	3205,58
554,239	2935,25
554,434	2691,54
554,629	2539,99
554,824	2351,58
555,019	2425,31
555,214	2130,4
555,409	2101,73
555,604	2165,21
555,799	1974,75
555,994	1798,63
556,189	1698,28
556,384	1667,56
556,579	1647,08
556,774	1524,2
556,969	1481,19
557,164	1305,07
557,359	1303,02
557,554	1382,89
557,749	1204,72
557,944	1241,58
558,139	1233,39
558,334	1147,37
558,529	1085,94
558,724	1024,5
558,918	1186,29
559,113	1004,02
559,308	1010,16
559,503	1051,12
559,698	993,78
559,893	969,2
560,087	920,05
560,282	897,52
560,477	1044,98
560,672	944,63
560,866	952,82
561,061	987,63
561,256	950,77
561,45	932,34
561,645	885,23
561,84	915,95
562,034	870,9
562,229	768,5
562,424	780,79
562,618	801,27
562,813	881,14
563,008	717,3
563,202	713,21
563,397	686,58
563,591	774,64
563,786	676,34
563,98	532,98
564,175	655,86
564,369	668,15
564,564	709,11
564,758	643,57
564,953	578,04
565,147	651,77
565,342	659,96
565,536	610,81
565,731	635,38
565,925	551,42
566,119	623,09
566,314	682,49
566,508	643,57
566,703	657,91
566,897	541,18
567,091	557,56
567,286	584,18
567,48	684,53
567,674	662,01
567,868	602,61
568,063	590,33
568,257	567,8
568,451	561,66
568,646	459,26
568,84	549,37
569,034	430,59
569,228	449,02
569,422	418,3
569,616	418,3
569,811	326,14
570,005	418,3
570,199	393,72
570,393	455,16
570,587	399,87
570,781	342,52
570,975	414,2
571,169	330,23
571,364	444,92
571,558	373,24
571,752	356,86
571,946	340,47
572,14	332,28
572,334	416,25
572,528	412,15
572,722	500,22
572,916	453,11
573,109	455,16
573,303	369,15
573,497	526,84
573,691	666,1
573,885	614,9
574,079	608,76
574,273	791,03
574,467	1284,59
574,661	2437,59
574,854	4180,42
575,048	6166,95
575,242	7465,36
575,436	8313,22
575,63	8393,09
575,823	7412,11
576,017	6181,28
576,211	4886,97
576,405	4485,56
576,598	4016,58
576,792	4620,73
576,986	5960,1
577,18	7332,24
577,373	8157,57
577,567	8845,69
577,761	8812,92
577,954	8399,23
578,148	7330,19
578,341	7524,75
578,535	7373,2
578,729	7578
578,922	7215,51
579,116	7233,94
579,309	6685,08
579,503	6220,19
579,696	5824,94
579,89	5990,82
580,083	5863,85
580,277	6074,79
580,47	6338,98
580,664	6810,01
580,857	6898,07
581,051	7635,34
581,244	7643,53
581,437	8001,93
581,631	8102,28
581,824	8311,17
582,018	8165,76
582,211	8155,52
582,404	8147,33
582,598	8139,14
582,791	7983,49
582,984	7948,68
583,178	8012,17
583,371	7811,46
583,564	7698,83
583,757	7383,44
583,951	7317,9
584,144	7119,25
584,337	7080,34
584,53	7088,53
584,723	7381,39
584,917	8491,39
585,11	9507,18
585,303	11379,03
585,496	12747,07
585,689	14229,8
585,882	14780,7
586,075	14227,75
586,268	13197,62
586,462	12077,38
586,655	10371,43
586,848	9369,97
587,041	8188,29
587,234	7479,69
587,427	6795,67
587,62	6228,38
587,813	5835,17
588,006	5622,19
588,199	5403,05
588,392	5374,38
588,585	5130,67
588,777	5415,34
588,97	5271,98
589,163	5396,91
589,356	5511,6
589,549	5470,64
589,742	5669,29
589,935	5661,1
590,128	5994,92
590,32	6592,92
590,513	7180,69
590,706	8030,6
590,899	8849,78
591,092	10289,51
591,284	10928,47
591,477	11833,68
591,67	11964,75
591,863	11954,51
592,055	11239,76
592,248	10316,13
592,441	9480,56
592,633	8352,13
592,826	7596,43
593,019	6818,2
593,211	6232,48
593,404	5638,57
593,596	5343,66
593,789	4991,41
593,982	4739,51
594,174	4555,19
594,367	4497,85
594,559	4360,64
594,752	4121,03
594,944	4276,67
595,137	4006,34
595,329	4088,26
595,522	3940,8
595,714	3832,26
595,907	3893,7
596,099	3828,17
596,292	4098,5
596,484	4188,61
596,676	4530,62
596,869	4880,82
597,061	5513,64
597,253	6011,3
597,446	6656,41
597,638	7111,06
597,83	7309,71
598,023	7707,02
598,215	7729,55
598,407	7684,49
598,6	7211,41
598,792	6803,86
598,984	6240,67
599,176	5804,46
599,369	5370,29
599,561	4997,56
599,753	4596,15
599,945	4245,95
600,137	3723,72
600,329	3695,05
600,522	3453,39
600,714	3172,82
600,906	3066,32
601,098	2984,4
601,29	2873,81
601,482	2705,88
601,674	2521,56
601,866	2675,16
602,058	2533,85
602,25	2634,2
602,442	2716,12
602,634	2734,55
602,826	2689,49
603,018	2752,98
603,21	2736,6
603,402	2798,04
603,594	2845,14
603,786	2896,34
603,978	3056,08
604,17	2904,53
604,362	3111,38
604,554	3273,17
604,745	3289,55
604,937	3539,4
605,129	3502,54
605,321	3699,14
605,513	3895,75
605,704	4178,37
605,896	4393,4
606,088	4815,29
606,28	5013,94
606,471	5497,26
606,663	6058,4
606,855	6662,55
607,047	7428,49
607,238	8251,78
607,43	9183,6
607,622	10793,31
607,813	12331,33
608,005	14647,58
608,197	17621,24
608,388	22259,88
608,58	28491,85
608,771	39151,53
608,963	51848,94
609,154	62699,08
609,346	62918,21
609,537	64390,7
609,729	64390,7
609,921	64390,7
610,112	64390,7
610,303	64390,7
610,495	64390,7
610,686	64390,7
610,878	64390,7
611,069	64390,7
611,261	64390,7
611,452	64390,7
611,643	64390,7
611,835	64390,7
612,026	64390,7
612,217	64390,7
612,409	64390,7
612,6	55346,87
612,791	39278,5
612,983	33826,81
613,174	32213,01
613,365	30363,7
613,557	27562,08
613,748	25647,22
613,939	22952,1
614,13	21063,87
614,321	18782,43
614,513	17207,55
614,704	15110,43
614,895	13996,33
615,086	12671,29
615,277	11721,04
615,468	10803,55
615,659	10090,85
615,851	9212,28
616,042	8694,14
616,233	8020,36
616,424	7543,18
616,615	7020,95
616,806	6812,06
616,997	6173,09
617,188	6113,7
617,379	5771,69
617,57	5824,94
617,761	5370,29
617,952	5667,24
618,143	5585,32
618,334	5489,07
618,524	5472,68
618,715	5589,42
618,906	5517,74
619,097	5626,28
619,288	5583,27
619,479	5665,19
619,67	5706,15
619,86	5706,15
620,051	5736,87
620,242	5783,98
620,433	5611,95
620,624	5880,23
620,814	5951,91
621,005	6152,61
621,196	6193,57
621,386	6558,11
621,577	6660,51
621,768	6730,14
621,958	6779,29
622,149	6814,1
622,34	6998,42
622,53	6947,22
622,721	7119,25
622,912	7430,54
623,102	7291,28
623,293	7500,17
623,483	7551,37
623,674	7397,78
623,864	7666,06
624,055	7827,85
624,245	7682,44
624,436	7735,69
624,626	7877
624,817	7836,04
625,007	7991,69
625,198	7987,59
625,388	7881,1
625,579	7944,58
625,769	7760,27
625,959	7704,97
626,15	7616,91
626,34	7621
626,531	7381,39
626,721	7586,19
626,911	7322
627,101	7289,23
627,292	7225,75
627,482	7270,8
627,672	7358,86
627,863	7510,41
628,053	7899,53
628,243	8659,32
628,433	9308,53
628,623	10570,08
628,814	11606,35
629,004	13240,63
629,194	14455,08
629,384	14977,31
629,574	14895,39
629,764	14430,5
629,955	13388,08
630,145	11948,36
630,335	10299,75
630,525	8892,79
630,715	7721,35
630,905	6746,52
631,095	5759,4
631,285	5185,97
631,475	4536,76
631,665	4202,94
631,855	3662,28
632,045	3418,57
632,235	3178,96
632,425	2918,87
632,615	2830,8
632,805	2722,26
632,994	2417,12
633,184	2474,46
633,374	2122,21
633,564	2060,77
633,754	1987,04
633,944	1878,5
634,133	1581,54
634,323	1657,32
634,513	1653,22
634,703	1599,98
634,893	1407,47
635,082	1450,47
635,272	1358,32
635,462	1262,06
635,651	1458,67
635,841	1321,45
636,031	1167,85
636,221	1133,04
636,41	1124,85
636,6	1090,03
636,789	1157,61
636,979	1063,41
637,169	1032,69
637,358	971,25
637,548	1047,02
637,737	979,44
637,927	993,78
638,116	1057,26
638,306	942,58
638,495	973,3
638,685	977,39
638,874	1014,26
639,064	924,15
639,253	1079,79
639,443	1010,16
639,632	911,86
639,822	922,1
640,011	999,92
640,2	1012,21
640,39	1016,3
640,579	977,39
640,768	954,87
640,958	905,71
641,147	983,54
641,336	1004,02
641,526	981,49
641,715	946,67
641,904	1106,42
642,093	987,63
642,283	1063,41
642,472	956,91
642,661	909,81
642,85	1067,5
643,039	1053,17
643,228	1239,53
643,418	1083,89
643,607	1094,13
643,796	952,82
643,985	979,44
644,174	1036,78
644,363	1042,93
644,552	999,92
644,741	881,14
644,93	895,47
645,119	1008,11
645,308	924,15
645,497	854,51
645,686	995,82
645,875	993,78
646,064	866,8
646,253	1006,06
646,442	940,53
646,631	936,43
646,82	1049,07
647,009	1001,97
647,198	1077,74
647,387	1145,33
647,575	1255,92
647,764	1901,03
647,953	1837,54
648,142	2271,71
648,331	2951,63
648,519	3250,64
648,708	3617,22
648,897	3776,97
649,086	4018,63
649,274	3672,52
649,463	3344,84
649,652	3092,94
649,84	2879,96
650,029	2529,75
650,218	2298,33
650,406	2140,64
650,595	1999,33
650,784	2077,15
650,972	1946,08
651,161	1933,79
651,349	2163,17
651,538	2107,87
651,726	2017,76
651,915	1962,47
652,104	1817,06
652,292	1761,77
652,481	1571,3
652,669	1647,08
652,857	1423,85
653,046	1346,03
653,234	1264,11
653,423	1300,97
653,611	1090,03
653,8	1157,61
653,988	1167,85
654,176	1036,78
654,365	954,87
654,553	1071,6
654,741	1120,75
654,93	956,91
655,118	1036,78
655,306	1126,89
655,494	1182,19
655,683	1237,49
655,871	1159,66
656,059	1350,12
656,247	1184,24
656,436	1343,98
656,624	1276,4
656,812	1186,29
657	1016,3
657,188	1051,12
657,376	985,58
657,564	864,75
657,753	782,84
657,941	815,6
658,129	727,54
658,317	752,12
658,505	653,81
658,693	727,54
658,881	647,67
659,069	700,92
659,257	676,34
659,445	782,84
659,633	864,75
659,821	1104,37
660,009	1296,88
660,197	1395,18
660,384	1745,38
660,572	2189,79
660,76	2208,22
660,948	2361,82
661,136	2140,64
661,324	2114,02
661,512	1944,03
661,699	1774,05
661,887	1724,9
662,075	1501,67
662,263	1325,55
662,451	1200,62
662,638	1137,13
662,826	1036,78
663,014	1010,16
663,201	938,48
663,389	903,67
663,577	868,85
663,764	870,9
663,952	797,17
664,14	778,74
664,327	709,11
664,515	750,07
664,702	766,45
664,89	659,96
665,078	805,36
665,265	680,44
665,453	756,21
665,64	745,97
665,828	627,19
666,015	606,71
666,203	752,12
666,39	598,52
666,578	668,15
666,765	649,72
666,952	791,03
667,14	733,68
667,327	651,77
667,515	653,81
667,702	645,62
667,889	569,85
668,077	541,18
668,264	655,86
668,451	715,25
668,638	575,99
668,826	565,75
669,013	594,42
669,2	571,9
669,388	612,85
669,575	643,57
669,762	547,32
669,949	598,52
670,136	1151,47
670,323	604,66
670,511	596,47
670,698	532,98
670,885	598,52
671,072	627,19
671,259	489,98
671,446	528,89
671,633	471,54
671,82	594,42
672,007	496,12
672,194	543,22
672,381	451,07
672,568	535,03
672,755	510,46
672,942	516,6
673,129	446,97
673,316	465,4
673,503	520,7
673,69	457,21
673,877	526,84
674,064	489,98
674,251	430,59
674,437	543,22
674,624	487,93
674,811	391,67
674,998	389,63
675,185	485,88
675,372	498,17
675,558	381,43
675,745	436,73
675,932	436,73
676,119	379,39
676,305	356,86
676,492	455,16
676,679	436,73
676,865	363
677,052	528,89
677,239	418,3
677,425	465,4
677,612	668,15
677,798	580,09
677,985	532,98
678,172	565,75
678,358	651,77
678,545	559,61
678,731	655,86
678,918	586,23
679,104	614,9
679,291	848,37
679,477	545,27
679,664	547,32
679,85	643,57
680,036	477,69
680,223	469,5
680,409	545,27
680,596	485,88
680,782	463,35
680,968	530,94
681,155	487,93
681,341	504,31
681,527	494,07
681,714	442,87
681,9	444,92
682,086	414,2
682,272	406,01
682,459	461,3
682,645	489,98
682,831	545,27
683,017	537,08
683,204	614,9
683,39	463,35
683,576	608,76
683,762	557,56
683,948	561,66
684,134	688,63
684,32	723,44
684,506	813,56
684,693	979,44
684,879	1028,59
685,065	1233,39
685,251	1298,92
685,437	1569,26
685,623	1692,13
685,809	1802,72
685,995	1984,99
686,181	1888,74
686,366	1815,01
686,552	1741,29
686,738	1509,86
686,924	1368,56
687,11	1237,49
687,296	1225,2
687,482	997,87
687,668	821,75
687,853	774,64
688,039	748,02
688,225	655,86
688,411	584,18
688,597	668,15
688,782	645,62
688,968	551,42
689,154	582,14
689,34	553,46
689,525	471,54
689,711	446,97
689,897	451,07
690,082	340,47
690,268	418,3
690,454	320
690,639	328,19
690,825	496,12
691,01	614,9
691,196	666,1
691,381	858,61
691,567	1069,55
691,753	1364,46
691,938	1376,75
692,124	1323,5
692,309	1239,53
692,494	1079,79
692,68	895,47
692,865	774,64
693,051	676,34
693,236	569,85
693,422	518,65
693,607	399,87
693,792	365,05
693,978	330,23
694,163	354,81
694,348	426,49
694,534	446,97
694,719	481,78
694,904	469,5
695,089	483,83
695,275	397,82
695,46	305,66
695,645	262,65
695,83	248,32
696,016	219,64
696,201	164,35
696,386	199,16
696,571	207,36
696,756	160,25
696,941	225,79
697,126	137,73
697,311	135,68
697,497	133,63
697,682	109,05
697,867	231,93
698,052	162,3
698,237	221,69
698,422	133,63
698,607	217,6
698,792	238,08
698,977	201,21
699,162	244,22
699,347	266,75
699,531	168,45
699,716	184,83
699,901	154,11
700,086	324,09
700,271	240,12
700,456	356,86
700,641	272,89
700,825	225,79
701,01	322,04
701,195	354,81
701,38	356,86
701,565	418,3
701,749	369,15
701,934	436,73
702,119	594,42
702,303	504,31
702,488	651,77
702,673	659,96
702,857	662,01
703,042	682,49
703,227	856,56
703,411	965,11
703,596	1073,65
703,78	1206,77
703,965	1518,06
704,15	1708,52
704,334	2200,03
704,519	2406,88
704,703	3015,12
704,888	3338,7
705,072	3729,86
705,257	3649,99
705,441	3811,78
705,625	3623,37
705,81	3525,07
705,994	3305,93
706,179	3002,83
706,363	2908,63
706,547	3178,96
706,732	3623,37
706,916	3815,88
707,1	4145,6
707,285	4639,16
707,469	4475,32
707,653	4151,74
707,837	3819,97
708,022	3201,49
708,206	2707,93
708,39	2269,66
708,574	1997,28
708,759	1743,33
708,943	1509,86
709,127	1413,61
709,311	1520,1
709,495	1626,6
709,679	2023,91
709,863	2453,98
710,047	2853,33
710,231	3346,89
710,415	3394
710,6	3609,03
710,784	3678,66
710,968	3377,61
711,152	2959,83
711,336	2558,42
711,519	2087,39
711,703	1827,3
711,887	1565,16
712,071	1264,11
712,255	1053,17
712,439	991,73
712,623	870,9
712,807	705,01
712,991	551,42
713,174	518,65
713,358	461,3
713,542	344,57
713,726	428,54
713,91	381,43
714,093	332,28
714,277	305,66
714,461	203,26
714,645	225,79
714,828	133,63
715,012	174,59
715,196	53,76
715,379	119,29
715,563	115,2
715,747	113,15
715,93	125,44
716,114	88,57
716,297	53,76
716,481	107,01
716,664	84,48
716,848	68,09
717,031	160,25
717,215	96,77
717,398	29,18
717,582	94,72
717,765	152,06
717,949	109,05
718,132	16,9
718,316	45,57
718,499	53,76
718,682	147,97
718,866	82,43
719,049	137,73
719,233	55,81
719,416	131,58
719,599	135,68
719,782	14,85
719,966	29,18
720,149	29,18
720,332	80,38
720,515	111,1
720,699	82,43
720,882	80,38
721,065	74,24
721,248	184,83
721,431	86,53
721,615	66,05
721,798	84,48
721,981	45,57
722,164	45,57
722,347	119,29
722,53	111,1
722,713	27,14
722,896	76,29
723,079	29,18
723,262	51,71
723,445	246,27
723,628	12,8
723,811	51,71
723,994	107,01
724,177	166,4
724,36	115,2
724,543	-3,58
724,726	107,01
724,909	100,86
725,091	129,53
725,274	139,77
725,457	82,43
725,64	84,48
725,823	141,82
726,006	45,57
726,188	139,77
726,371	238,08
726,554	98,81
726,737	78,33
726,919	109,05
727,102	100,86
727,285	141,82
727,467	57,86
727,65	55,81
727,833	51,71
728,015	27,14
728,198	90,62
728,38	10,75
728,563	-11,78
728,746	78,33
728,928	47,62
729,111	59,9
729,293	102,91
729,476	92,67
729,658	53,76
729,841	64
730,023	127,49
730,205	29,18
730,388	29,18
730,57	98,81
730,753	43,52
730,935	76,29
731,117	135,68
731,3	-42,5
731,482	66,05
731,664	31,23
731,847	74,24
732,029	121,34
732,211	37,38
732,394	-65,02
732,576	16,9
732,758	100,86
732,94	104,96
733,122	-3,58
733,305	55,81
733,487	57,86
733,669	27,14
733,851	4,61
734,033	55,81
734,215	10,75
734,397	49,66
734,58	133,63
734,762	41,47
734,944	107,01
735,126	-54,78
735,308	107,01
735,49	-19,97
735,672	23,04
735,854	29,18
736,036	170,49
736,218	274,94
736,399	348,67
736,581	342,52
736,763	299,52
736,945	352,76
737,127	272,89
737,309	313,85
737,491	139,77
737,672	150,01
737,854	104,96
738,036	141,82
738,218	88,57
738,4	10,75
738,581	70,14
738,763	27,14
738,945	49,66
739,127	76,29
739,308	135,68
739,49	107,01
739,672	127,49
739,853	8,7
740,035	78,33
740,216	68,09
740,398	84,48
740,58	74,24
740,761	141,82
740,943	166,4
741,124	168,45
741,306	100,86
741,487	145,92
741,669	37,38
741,85	59,9
742,032	123,39
742,213	96,77
742,394	64
742,576	51,71
742,757	111,1
742,939	88,57
743,12	-1,54
743,301	78,33
743,483	25,09
743,664	10,75
743,845	59,9
744,027	59,9
744,208	20,99
744,389	37,38
744,57	80,38
744,752	184,83
744,933	107,01
745,114	109,05
745,295	57,86
745,476	98,81
745,657	4,61
745,839	57,86
746,02	64
746,201	143,87
746,382	47,62
746,563	4,61
746,744	2,56
746,925	-5,63
747,106	-7,68
747,287	43,52
747,468	70,14
747,649	80,38
747,83	31,23
748,011	195,07
748,192	207,36
748,373	178,69
748,554	256,51
748,735	313,85
748,915	299,52
749,096	342,52
749,277	459,26
749,458	494,07
749,639	322,04
749,82	469,5
750	307,71
750,181	340,47
750,362	203,26
750,543	240,12
750,723	162,3
750,904	125,44
751,085	78,33
751,265	100,86
751,446	53,76
751,627	31,23
751,807	10,75
751,988	64
752,169	94,72
752,349	-1,54
752,53	-1,54
752,71	-28,16
752,891	107,01
753,071	29,18
753,252	-114,17
753,432	-112,13
753,613	-17,92
753,793	27,14
753,974	45,57
754,154	33,28
754,334	6,66
754,515	0,51
754,695	66,05
754,876	80,38
755,056	45,57
755,236	61,95
755,417	-9,73
755,597	123,39
755,777	-15,87
755,957	53,76
756,138	66,05
756,318	-42,5
756,498	-65,02
756,678	4,61
756,859	39,42
757,039	-5,63
757,219	109,05
757,399	-77,31
757,579	20,99
757,759	-36,35
757,939	8,7
758,119	41,47
758,3	57,86
758,48	102,91
758,66	43,52
758,84	-93,69
759,02	33,28
759,2	-3,58
759,38	-28,16
759,56	102,91
759,74	12,8
759,919	25,09
760,099	98,81
760,279	49,66
760,459	12,8
760,639	33,28
760,819	119,29
760,999	272,89
761,178	639,48
761,358	1065,46
761,538	1262,06
761,718	1434,09
761,898	1450,47
762,077	1300,97
762,257	1053,17
762,437	788,98
762,616	686,58
762,796	508,41
762,976	471,54
763,155	285,18
763,335	233,98
763,515	170,49
763,694	197,12
763,874	64
764,053	76,29
764,233	45,57
764,413	53,76
764,592	29,18
764,772	59,9
764,951	-15,87
765,131	-58,88
765,31	6,66
765,489	29,18
765,669	-15,87
765,848	43,52
766,028	18,94
766,207	-83,45
766,386	59,9
766,566	-120,32
766,745	-15,87
766,924	-42,5
767,104	64
767,283	-11,78
767,462	16,9
767,642	-32,26
767,821	2,56
768	12,8
768,179	49,66
768,358	4,61
768,538	20,99
768,717	-36,35
768,896	-15,87
769,075	70,14
769,254	-87,55
769,433	-7,68
769,612	51,71
769,791	74,24
769,97	129,53
770,149	336,38
770,328	287,23
770,507	401,91
770,686	453,11
770,865	444,92
771,044	287,23
771,223	240,12
771,402	242,17
771,581	193,02
771,76	78,33
771,939	168,45
772,118	100,86
772,297	59,9
772,475	16,9
772,654	78,33
772,833	86,53
773,012	92,67
773,191	64
773,369	90,62
773,548	152,06
773,727	-19,97
773,906	147,97
774,084	0,51
774,263	-75,26
774,442	12,8
774,62	45,57
774,799	57,86
774,977	39,42
775,156	92,67
775,335	55,81
775,513	-3,58
775,692	53,76
775,87	162,3
776,049	-85,5
776,227	53,76
776,406	92,67
776,584	-24,06
776,763	-3,58
776,941	-52,74
777,119	-11,78
777,298	0,51
777,476	6,66
777,655	4,61
777,833	-58,88
778,011	-46,59
778,19	-22,02
778,368	29,18
778,546	29,18
778,725	70,14
778,903	4,61
779,081	-13,82
779,259	35,33
779,437	-7,68
779,616	43,52
779,794	-3,58
779,972	78,33
780,15	4,61
780,328	-69,12
780,506	-38,4
780,685	-17,92
780,863	-28,16
781,041	-30,21
781,219	23,04
781,397	37,38
781,575	-32,26
781,753	4,61
781,931	-11,78
782,109	4,61
782,287	-28,16
782,465	57,86
782,643	-77,31
782,82	8,7
782,998	43,52
783,176	70,14
783,354	-101,89
783,532	41,47
783,71	-3,58
783,888	-5,63
784,065	35,33
784,243	-11,78
784,421	-15,87
784,599	10,75
784,776	41,47
784,954	-26,11
785,132	8,7
785,31	18,94
785,487	-9,73
785,665	45,57
785,842	-15,87
786,02	113,15
786,198	27,14
786,375	10,75
786,553	-30,21
786,73	-48,64
786,908	-46,59
787,085	14,85
787,263	4,61
787,44	49,66
787,618	10,75
787,795	-44,54
787,973	-62,98
788,15	64
788,328	-30,21
788,505	27,14
788,682	-85,5
788,86	-32,26
789,037	0,51
789,215	-1,54
789,392	-15,87
789,569	12,8
789,746	41,47
789,924	-32,26
790,101	18,94
790,278	41,47
790,455	12,8
790,633	-11,78
790,81	-40,45
790,987	27,14
791,164	-13,82
791,341	18,94
791,518	-1,54
791,695	61,95
791,873	0,51
792,05	43,52
792,227	27,14
792,404	119,29
792,581	176,64
792,758	313,85
792,935	233,98
793,112	240,12
793,289	274,94
793,466	190,97
793,643	123,39
793,82	70,14
793,996	109,05
794,173	166,4
794,35	4,61
794,527	18,94
794,704	66,05
794,881	-28,16
795,057	-26,11
795,234	-28,16
795,411	86,53
795,588	-44,54
795,765	-52,74
795,941	33,28
796,118	-79,36
796,295	45,57
796,471	10,75
796,648	-34,3
796,825	-3,58
797,001	90,62
797,178	72,19
797,354	-5,63
797,531	-9,73
797,708	4,61
797,884	82,43
798,061	-17,92
798,237	61,95
798,414	143,87
798,59	119,29
798,767	231,93
798,943	197,12
799,119	324,09
799,296	330,23
799,472	430,59
799,649	350,71
799,825	315,9
800,001	252,41
800,178	188,93
800,354	186,88
800,53	150,01
800,707	10,75
800,883	53,76
801,059	68,09
801,235	76,29
801,411	35,33
801,588	-44,54
801,764	76,29
801,94	-65,02
802,116	-7,68
802,292	-52,74
802,468	12,8
802,645	74,24
802,821	109,05
802,997	35,33
803,173	-42,5
803,349	4,61
803,525	41,47
803,701	10,75
803,877	-7,68
804,053	20,99
804,229	8,7
804,405	47,62
804,581	16,9
804,756	12,8
804,932	-75,26
805,108	-11,78
805,284	-36,35
805,46	-30,21
805,636	4,61
805,812	-62,98
805,987	2,56
806,163	-87,55
806,339	170,49
806,515	-42,5
806,69	-77,31
806,866	-28,16
807,042	18,94
807,217	6,66
807,393	-13,82
807,569	-60,93
807,744	94,72
807,92	229,88
808,096	193,02
808,271	274,94
808,447	276,99
808,622	307,71
808,798	422,39
808,973	430,59
809,149	668,15
809,324	883,19
809,5	1051,12
809,675	1044,98
809,851	1016,3
810,026	958,96
810,201	590,33
810,377	457,21
810,552	313,85
810,728	248,32
810,903	170,49
811,078	166,4
811,253	135,68
811,429	92,67
811,604	-65,02
811,779	59,9
811,955	90,62
812,13	88,57
812,305	-5,63
812,48	-73,21
812,655	88,57
812,83	-48,64
813,006	39,42
813,181	-50,69
813,356	-28,16
813,531	12,8
813,706	0,51
813,881	20,99
814,056	-101,89
814,231	86,53
814,406	-83,45
814,581	-30,21
814,756	-52,74
814,931	8,7
815,106	12,8
815,281	-7,68
815,456	-19,97
815,631	-36,35
815,805	14,85
815,98	-42,5
816,155	-11,78
816,33	-42,5
816,505	-87,55
816,68	31,23
816,854	-50,69
817,029	-28,16
817,204	-3,58
817,379	-52,74
817,553	-24,06
817,728	16,9
817,903	-11,78
818,077	64
818,252	-46,59
818,427	-19,97
818,601	100,86
818,776	-24,06
818,95	-22,02
819,125	64
819,299	-15,87
819,474	-22,02
819,648	-34,3
819,823	78,33
819,997	4,61
820,172	-65,02
820,346	31,23
820,521	-24,06
820,695	-26,11
820,87	-34,3
821,044	0,51
821,218	64
821,393	66,05
821,567	-34,3
821,741	-34,3
821,916	-79,36
822,09	-60,93
822,264	20,99
822,438	-103,93
822,613	-50,69
822,787	-7,68
822,961	-3,58
823,135	16,9
823,309	-9,73
823,483	-24,06
823,658	43,52
823,832	45,57
824,006	-13,82
824,18	117,25
824,354	160,25
824,528	78,33
824,702	170,49
824,876	70,14
825,05	135,68
825,224	90,62
825,398	0,51
825,572	-28,16
825,746	-40,45
825,92	80,38
826,093	-52,74
826,267	94,72
826,441	-1,54
826,615	84,48
826,789	4,61
826,963	64
827,136	-3,58
827,31	-26,11
827,484	8,7
827,658	10,75
827,831	0,51
828,005	45,57
828,179	-73,21
828,353	43,52
828,526	12,8
828,7	-15,87
828,873	-28,16
829,047	-24,06
829,221	-38,4
829,394	27,14
829,568	29,18
829,741	-11,78
829,915	-9,73
830,088	10,75
830,262	61,95
830,435	-34,3
830,609	12,8
830,782	4,61
830,956	4,61
831,129	-19,97
831,302	2,56
831,476	-87,55
831,649	-87,55
831,822	-28,16
831,996	57,86
832,169	66,05
832,342	-114,17
832,516	25,09
832,689	-40,45
832,862	-28,16
833,035	53,76
833,209	31,23
833,382	74,24
833,555	-56,83
833,728	-28,16
833,901	-44,54
834,074	12,8
834,247	-56,83
834,42	6,66
834,594	-36,35
834,767	-7,68
834,94	-19,97
835,113	31,23
835,286	-44,54
835,459	27,14
835,632	-48,64
835,805	-30,21
835,977	37,38
836,15	25,09
836,323	-13,82
836,496	-22,02
836,669	51,71
836,842	-22,02
837,015	20,99
837,188	35,33
837,36	-19,97
837,533	-38,4
837,706	45,57
837,879	27,14
838,051	8,7
838,224	2,56
838,397	29,18
838,569	201,21
838,742	55,81
838,915	102,91
839,087	199,16
839,26	213,5
839,433	147,97
839,605	223,74
839,778	111,1
839,95	178,69
840,123	170,49
840,295	264,7
840,468	242,17
840,64	231,93
840,813	242,17
840,985	205,31
841,158	102,91
841,33	72,19
841,502	113,15
841,675	45,57
841,847	80,38
842,019	43,52
842,192	84,48
842,364	107,01
842,536	12,8
842,709	37,38
842,881	-28,16
843,053	12,8
843,225	16,9
843,398	72,19
843,57	-50,69
843,742	-46,59
843,914	41,47
844,086	82,43
844,258	-60,93
844,43	12,8
844,602	49,66
844,775	-36,35
844,947	25,09
845,119	-3,58
845,291	37,38
845,463	49,66
845,635	-28,16
845,807	20,99
845,979	96,77
846,15	8,7
846,322	-93,69
846,494	-108,03
846,666	-17,92
846,838	35,33
847,01	55,81
847,182	45,57
847,354	31,23
847,525	-19,97
847,697	8,7
847,869	-38,4
848,041	-1,54
848,212	-9,73
848,384	-36,35
848,556	35,33
848,727	23,04
848,899	-62,98
849,071	-28,16
849,242	10,75
849,414	12,8
849,585	4,61
849,757	20,99
849,929	64
850,1	20,99
850,272	109,05
850,443	147,97
850,615	158,21
850,786	61,95
850,958	41,47
851,129	-9,73
851,3	135,68
851,472	41,47
851,643	-32,26
851,815	53,76
851,986	27,14
852,157	53,76
852,329	53,76
852,5	-62,98
852,671	57,86
852,842	20,99
853,014	0,51
853,185	74,24
853,356	-32,26
853,527	27,14
853,698	-3,58
853,87	14,85
854,041	74,24
854,212	-9,73
854,383	-3,58
854,554	-11,78
854,725	100,86
854,896	51,71
855,067	-34,3
855,238	-67,07
855,409	8,7
855,58	-36,35
855,751	125,44
855,922	25,09
856,093	180,73
856,264	-24,06
856,435	-56,83
856,606	-9,73
856,777	66,05
856,948	-22,02
857,118	-11,78
857,289	2,56
857,46	33,28
857,631	-28,16
857,802	45,57
857,972	72,19
858,143	61,95
858,314	-19,97
858,484	18,94
858,655	18,94
858,826	45,57
858,996	-15,87
859,167	31,23
859,338	-34,3
859,508	-19,97
859,679	-24,06
859,849	-28,16
860,02	12,8
860,19	-50,69
860,361	39,42
860,531	-54,78
860,702	166,4
860,872	104,96
861,043	-22,02
861,213	23,04
861,384	-9,73
861,554	51,71
861,724	-44,54
861,895	-5,63
862,065	96,77
862,235	20,99
862,406	29,18
862,576	-30,21
862,746	-30,21
862,916	-11,78
863,087	102,91
863,257	6,66
863,427	-54,78
863,597	-30,21
863,767	10,75
863,937	-79,36
864,108	-44,54
864,278	10,75
864,448	25,09
864,618	16,9
864,788	-56,83
864,958	74,24
865,128	18,94
865,298	2,56
865,468	-7,68
865,638	-30,21
865,808	39,42
865,978	109,05
866,148	-46,59
866,318	-24,06
866,487	29,18
866,657	18,94
866,827	6,66
866,997	-30,21
867,167	94,72
867,337	27,14
867,506	-22,02
867,676	-5,63
867,846	-79,36
868,016	39,42
868,185	-54,78
868,355	-7,68
868,525	78,33
868,694	-56,83
868,864	57,86
869,034	-19,97
869,203	-1,54
869,373	-11,78
869,542	23,04
869,712	41,47
869,881	18,94
870,051	12,8
870,22	-17,92
870,39	-13,82
870,559	78,33
870,729	-75,26
870,898	78,33
871,068	18,94
871,237	-52,74
871,406	-1,54
871,576	-15,87
871,745	-5,63
871,914	-46,59
872,084	20,99
872,253	18,94
872,422	8,7
872,591	90,62
872,761	-28,16
872,93	311,8
873,099	-36,35
873,268	43,52
873,437	-19,97
873,607	-93,69
873,776	18,94
873,945	-30,21
874,114	8,7
874,283	-46,59
874,452	10,75
874,621	-3,58
874,79	68,09
874,959	51,71
875,128	37,38
875,297	-17,92
875,466	51,71
875,635	33,28
875,804	-30,21
875,973	-87,55
876,142	43,52
876,31	-62,98
876,479	4,61
876,648	57,86
876,817	-34,3
876,986	8,7
877,155	20,99
877,323	-73,21
877,492	49,66
877,661	84,48
877,829	-24,06
877,998	23,04
878,167	82,43
878,335	29,18
878,504	-65,02
878,673	4,61
878,841	-24,06
879,01	-11,78
879,178	8,7
879,347	16,9
879,515	23,04
879,684	12,8
879,852	-44,54
880,021	23,04
880,189	-58,88
880,358	-28,16
880,526	225,79
880,695	-120,32
880,863	14,85
881,031	-62,98
881,2	-26,11
881,368	-44,54
881,536	86,53
881,705	41,47
881,873	-3,58
882,041	84,48
882,21	29,18
882,378	78,33
882,546	2,56
882,714	-3,58
882,882	-60,93
883,05	25,09
883,219	43,52
883,387	35,33
883,555	-22,02
883,723	-99,84
883,891	-17,92
884,059	0,51
884,227	-38,4
884,395	14,85
884,563	18,94
884,731	-5,63
884,899	76,29
885,067	-22,02
885,235	-7,68
885,403	-19,97
885,571	78,33
885,739	-40,45
