Data from USB4F035431__18__14-50-49-850.txt Node

Date: Wed Feb 12 14:50:49 CET 2025
User: Versuch 234
Spectrometer: USB4F03543
Trigger mode: 4
Integration Time (sec): 1,000000E-2
Scans to average: 1
Electric dark correction enabled: true
Nonlinearity correction enabled: false
Boxcar width: 0
XAxis mode: Wavelengths
Number of Pixels in Spectrum: 3648
>>>>>Begin Spectral Data<<<<<
179,969	23,72
180,181	23,72
180,394	23,72
180,606	36,01
180,819	-25,43
181,031	-9,05
181,243	40,11
181,456	3,24
181,668	21,67
181,88	7,34
182,093	36,01
182,305	-13,14
182,518	-43,86
182,73	52,39
182,942	-7
183,155	-99,16
183,367	11,43
183,579	54,44
183,791	13,48
184,004	62,63
184,216	66,73
184,428	-50
184,641	60,59
184,853	60,59
185,065	-4,95
185,277	25,77
185,49	-58,2
185,702	36,01
185,914	19,63
186,126	93,35
186,338	54,44
186,551	5,29
186,763	27,82
186,975	5,29
187,187	25,77
187,399	11,43
187,612	-31,57
187,824	-7
188,036	1,19
188,248	-25,43
188,46	1,19
188,672	42,15
188,885	-27,48
189,097	76,97
189,309	-23,38
189,521	21,67
189,733	-60,24
189,945	-19,29
190,157	19,63
190,369	-19,29
190,581	21,67
190,794	5,29
191,006	42,15
191,218	27,82
191,43	-9,05
191,642	-0,85
191,854	68,78
192,066	-9,05
192,278	54,44
192,49	40,11
192,702	36,01
192,914	25,77
193,126	13,48
193,338	21,67
193,55	66,73
193,762	38,06
193,974	46,25
194,186	-31,57
194,398	7,34
194,61	21,67
194,822	-33,62
195,034	11,43
195,246	33,96
195,457	44,2
195,669	31,91
195,881	74,92
196,093	-45,91
196,305	11,43
196,517	19,63
196,729	38,06
196,941	97,45
197,153	44,2
197,365	11,43
197,576	-2,9
197,788	44,2
198	3,24
198,212	56,49
198,424	-4,95
198,636	-25,43
198,847	11,43
199,059	-27,48
199,271	1,19
199,483	-11,09
199,695	3,24
199,906	-0,85
200,118	3,24
200,33	107,69
200,542	-7
200,753	-35,67
200,965	-60,24
201,177	58,54
201,389	-39,76
201,6	23,72
201,812	-2,9
202,024	-9,05
202,235	-19,29
202,447	11,43
202,659	17,58
202,871	54,44
203,082	-11,09
203,294	5,29
203,506	76,97
203,717	70,83
203,929	68,78
204,141	5,29
204,352	52,39
204,564	33,96
204,775	15,53
204,987	-19,29
205,199	-21,33
205,41	9,39
205,622	-17,24
205,833	-0,85
206,045	-17,24
206,257	-33,62
206,468	9,39
206,68	17,58
206,891	-33,62
207,103	38,06
207,314	-19,29
207,526	42,15
207,737	27,82
207,949	-9,05
208,16	70,83
208,372	-15,19
208,583	83,11
208,795	-37,72
209,006	7,34
209,218	3,24
209,429	42,15
209,641	-13,14
209,852	-2,9
210,064	46,25
210,275	-25,43
210,487	-37,72
210,698	-64,34
210,909	13,48
211,121	23,72
211,332	-21,33
211,544	5,29
211,755	-2,9
211,966	-39,76
212,178	-31,57
212,389	9,39
212,6	46,25
212,812	23,72
213,023	40,11
213,234	23,72
213,446	36,01
213,657	38,06
213,868	-17,24
214,08	62,63
214,291	3,24
214,502	38,06
214,714	31,91
214,925	-13,14
215,136	-0,85
215,347	-2,9
215,559	83,11
215,77	5,29
215,981	58,54
216,192	11,43
216,404	15,53
216,615	-29,52
216,826	-23,38
217,037	-11,09
217,249	19,63
217,46	70,83
217,671	62,63
217,882	21,67
218,093	-17,24
218,304	-2,9
218,516	29,87
218,727	36,01
218,938	46,25
219,149	-2,9
219,36	48,3
219,571	-11,09
219,782	52,39
219,993	-9,05
220,205	50,35
220,416	101,55
220,627	60,59
220,838	1,19
221,049	66,73
221,26	-4,95
221,471	58,54
221,682	27,82
221,893	56,49
222,104	31,91
222,315	9,39
222,526	7,34
222,737	3,24
222,948	31,91
223,159	-2,9
223,37	-15,19
223,581	-37,72
223,792	-0,85
224,003	17,58
224,214	-19,29
224,425	60,59
224,636	25,77
224,847	60,59
225,058	-19,29
225,269	-25,43
225,48	25,77
225,691	42,15
225,902	-4,95
226,112	29,87
226,323	-25,43
226,534	17,58
226,745	-11,09
226,956	17,58
227,167	31,91
227,378	9,39
227,589	-25,43
227,799	36,01
228,01	-0,85
228,221	-9,05
228,432	50,35
228,643	25,77
228,853	42,15
229,064	13,48
229,275	-13,14
229,486	68,78
229,697	76,97
229,907	7,34
230,118	38,06
230,329	-13,14
230,54	36,01
230,75	-27,48
230,961	27,82
231,172	19,63
231,383	-33,62
231,593	44,2
231,804	19,63
232,015	25,77
232,225	-13,14
232,436	-2,9
232,647	48,3
232,857	7,34
233,068	23,72
233,279	38,06
233,489	42,15
233,7	50,35
233,91	27,82
234,121	-52,05
234,332	5,29
234,542	52,39
234,753	13,48
234,964	5,29
235,174	79,02
235,385	-17,24
235,595	27,82
235,806	50,35
236,016	-21,33
236,227	19,63
236,437	-58,2
236,648	54,44
236,858	9,39
237,069	36,01
237,279	19,63
237,49	-47,96
237,7	68,78
237,911	-58,2
238,121	58,54
238,332	25,77
238,542	-23,38
238,753	11,43
238,963	33,96
239,174	38,06
239,384	-4,95
239,595	-33,62
239,805	11,43
240,015	36,01
240,226	21,67
240,436	11,43
240,647	38,06
240,857	-37,72
241,067	11,43
241,278	48,3
241,488	-41,81
241,698	-2,9
241,909	52,39
242,119	74,92
242,329	42,15
242,54	38,06
242,75	-19,29
242,96	-52,05
243,171	33,96
243,381	60,59
243,591	5,29
243,801	-11,09
244,012	23,72
244,222	-39,76
244,432	5,29
244,642	19,63
244,853	60,59
245,063	50,35
245,273	25,77
245,483	72,87
245,694	44,2
245,904	93,35
246,114	66,73
246,324	-29,52
246,534	21,67
246,744	9,39
246,955	5,29
247,165	-25,43
247,375	-35,67
247,585	17,58
247,795	36,01
248,005	15,53
248,215	11,43
248,425	13,48
248,636	15,53
248,846	27,82
249,056	-0,85
249,266	48,3
249,476	50,35
249,686	1,19
249,896	9,39
250,106	-0,85
250,316	5,29
250,526	25,77
250,736	-21,33
250,946	23,72
251,156	19,63
251,366	17,58
251,576	-13,14
251,786	68,78
251,996	44,2
252,206	111,78
252,416	19,63
252,626	27,82
252,836	-21,33
253,046	48,3
253,256	13,48
253,466	152,74
253,676	25,77
253,885	7,34
254,095	54,44
254,305	54,44
254,515	21,67
254,725	5,29
254,935	17,58
255,145	44,2
255,355	-19,29
255,564	72,87
255,774	9,39
255,984	27,82
256,194	25,77
256,404	-19,29
256,614	-9,05
256,823	19,63
257,033	36,01
257,243	52,39
257,453	7,34
257,662	38,06
257,872	-56,15
258,082	-17,24
258,292	5,29
258,501	36,01
258,711	42,15
258,921	15,53
259,131	50,35
259,34	60,59
259,55	33,96
259,76	-2,9
259,969	50,35
260,179	19,63
260,389	-11,09
260,598	9,39
260,808	62,63
261,018	7,34
261,227	62,63
261,437	33,96
261,647	70,83
261,856	7,34
262,066	91,31
262,275	19,63
262,485	19,63
262,694	-66,39
262,904	70,83
263,114	-2,9
263,323	27,82
263,533	25,77
263,742	68,78
263,952	25,77
264,161	9,39
264,371	31,91
264,58	17,58
264,79	31,91
264,999	-2,9
265,209	-7
265,418	-7
265,628	46,25
265,837	68,78
266,047	17,58
266,256	48,3
266,466	52,39
266,675	38,06
266,884	-13,14
267,094	42,15
267,303	-15,19
267,513	-62,29
267,722	5,29
267,931	-2,9
268,141	29,87
268,35	3,24
268,559	89,26
268,769	17,58
268,978	-35,67
269,187	11,43
269,397	38,06
269,606	-4,95
269,815	3,24
270,025	9,39
270,234	38,06
270,443	-45,91
270,653	87,21
270,862	19,63
271,071	25,77
271,28	-17,24
271,49	21,67
271,699	13,48
271,908	42,15
272,117	42,15
272,327	79,02
272,536	-17,24
272,745	54,44
272,954	25,77
273,163	17,58
273,372	-23,38
273,582	29,87
273,791	36,01
274	-15,19
274,209	87,21
274,418	25,77
274,627	36,01
274,836	-17,24
275,046	-23,38
275,255	25,77
275,464	-4,95
275,673	17,58
275,882	64,68
276,091	5,29
276,3	-11,09
276,509	19,63
276,718	70,83
276,927	-29,52
277,136	36,01
277,345	3,24
277,554	-21,33
277,763	19,63
277,972	40,11
278,181	-11,09
278,39	-23,38
278,599	-19,29
278,808	56,49
279,017	-27,48
279,226	9,39
279,435	29,87
279,644	-27,48
279,853	13,48
280,062	15,53
280,271	50,35
280,48	23,72
280,688	21,67
280,897	3,24
281,106	38,06
281,315	-58,2
281,524	44,2
281,733	-37,72
281,942	44,2
282,151	19,63
282,359	105,64
282,568	-2,9
282,777	46,25
282,986	38,06
283,195	62,63
283,403	23,72
283,612	31,91
283,821	-29,52
284,03	-27,48
284,238	27,82
284,447	1,19
284,656	-29,52
284,865	-17,24
285,073	-35,67
285,282	19,63
285,491	-95,06
285,699	-17,24
285,908	5,29
286,117	-0,85
286,325	-23,38
286,534	31,91
286,743	-15,19
286,951	46,25
287,16	1,19
287,369	19,63
287,577	-15,19
287,786	-52,05
287,995	38,06
288,203	-25,43
288,412	-31,57
288,62	11,43
288,829	13,48
289,037	-62,29
289,246	11,43
289,455	25,77
289,663	27,82
289,872	7,34
290,08	-27,48
290,289	3,24
290,497	19,63
290,706	-17,24
290,914	19,63
291,123	-13,14
291,331	-33,62
291,54	89,26
291,748	-19,29
291,957	-11,09
292,165	13,48
292,373	52,39
292,582	-17,24
292,79	33,96
292,999	21,67
293,207	33,96
293,415	15,53
293,624	33,96
293,832	5,29
294,041	60,59
294,249	72,87
294,457	70,83
294,666	3,24
294,874	60,59
295,082	58,54
295,291	46,25
295,499	-43,86
295,707	1,19
295,915	27,82
296,124	95,4
296,332	19,63
296,54	-25,43
296,749	72,87
296,957	-52,05
297,165	-4,95
297,373	17,58
297,581	-37,72
297,79	-25,43
297,998	29,87
298,206	-0,85
298,414	79,02
298,622	-21,33
298,831	36,01
299,039	17,58
299,247	62,63
299,455	33,96
299,663	-27,48
299,871	5,29
300,08	5,29
300,288	21,67
300,496	-13,14
300,704	-2,9
300,912	-45,91
301,12	-29,52
301,328	-11,09
301,536	9,39
301,744	36,01
301,952	11,43
302,16	-60,24
302,368	54,44
302,576	-54,1
302,784	3,24
302,992	3,24
303,2	-7
303,408	17,58
303,616	50,35
303,824	-2,9
304,032	7,34
304,24	27,82
304,448	42,15
304,656	-11,09
304,864	115,88
305,072	31,91
305,28	-41,81
305,488	85,16
305,696	62,63
305,904	66,73
306,111	-7
306,319	-2,9
306,527	91,31
306,735	7,34
306,943	-21,33
307,151	17,58
307,359	50,35
307,566	72,87
307,774	52,39
307,982	27,82
308,19	21,67
308,398	-2,9
308,605	9,39
308,813	29,87
309,021	19,63
309,229	-27,48
309,436	13,48
309,644	-2,9
309,852	-31,57
310,06	74,92
310,267	27,82
310,475	11,43
310,683	33,96
310,89	54,44
311,098	-2,9
311,306	54,44
311,513	-39,76
311,721	33,96
311,929	87,21
312,136	27,82
312,344	44,2
312,552	29,87
312,759	-25,43
312,967	56,49
313,174	60,59
313,382	9,39
313,589	-35,67
313,797	5,29
314,005	-9,05
314,212	74,92
314,42	29,87
314,627	-86,87
314,835	-13,14
315,042	52,39
315,25	17,58
315,457	-62,29
315,665	25,77
315,872	-17,24
316,08	38,06
316,287	54,44
316,495	99,5
316,702	-21,33
316,909	-2,9
317,117	-23,38
317,324	50,35
317,532	15,53
317,739	5,29
317,946	-13,14
318,154	19,63
318,361	-29,52
318,569	19,63
318,776	-50
318,983	19,63
319,191	40,11
319,398	-19,29
319,605	-15,19
319,813	31,91
320,02	27,82
320,227	3,24
320,434	11,43
320,642	25,77
320,849	-19,29
321,056	-54,1
321,264	9,39
321,471	13,48
321,678	79,02
321,885	70,83
322,092	15,53
322,3	-9,05
322,507	36,01
322,714	52,39
322,921	50,35
323,128	-11,09
323,336	-43,86
323,543	33,96
323,75	-2,9
323,957	27,82
324,164	99,5
324,371	52,39
324,578	-45,91
324,786	64,68
324,993	31,91
325,2	-19,29
325,407	-29,52
325,614	74,92
325,821	-9,05
326,028	-56,15
326,235	21,67
326,442	89,26
326,649	17,58
326,856	-25,43
327,063	40,11
327,27	56,49
327,477	33,96
327,684	15,53
327,891	58,54
328,098	79,02
328,305	60,59
328,512	5,29
328,719	42,15
328,926	66,73
329,133	126,12
329,34	265,38
329,546	437,41
329,753	472,23
329,96	535,71
330,167	517,28
330,374	378,02
330,581	302,25
330,788	181,42
330,995	119,98
331,201	79,02
331,408	-0,85
331,615	-2,9
331,822	-9,05
332,029	33,96
332,235	11,43
332,442	17,58
332,649	-15,19
332,856	52,39
333,062	38,06
333,269	-39,76
333,476	54,44
333,683	29,87
333,889	-74,58
334,096	13,48
334,303	62,63
334,509	38,06
334,716	70,83
334,923	-29,52
335,129	-39,76
335,336	3,24
335,543	36,01
335,749	-11,09
335,956	42,15
336,163	13,48
336,369	-45,91
336,576	-0,85
336,782	54,44
336,989	11,43
337,196	21,67
337,402	21,67
337,609	-15,19
337,815	38,06
338,022	-0,85
338,228	-13,14
338,435	13,48
338,641	44,2
338,848	-11,09
339,054	-2,9
339,261	33,96
339,467	-19,29
339,674	-4,95
339,88	117,93
340,087	31,91
340,293	64,68
340,5	52,39
340,706	-25,43
340,912	-19,29
341,119	-23,38
341,325	11,43
341,532	70,83
341,738	29,87
341,944	-13,14
342,151	21,67
342,357	11,43
342,563	5,29
342,77	46,25
342,976	1,19
343,182	70,83
343,389	-23,38
343,595	9,39
343,801	-43,86
344,007	54,44
344,214	66,73
344,42	-27,48
344,626	-11,09
344,832	27,82
345,039	-17,24
345,245	-0,85
345,451	-17,24
345,657	-33,62
345,864	44,2
346,07	29,87
346,276	19,63
346,482	13,48
346,688	66,73
346,894	38,06
347,1	-0,85
347,307	46,25
347,513	31,91
347,719	13,48
347,925	58,54
348,131	25,77
348,337	-17,24
348,543	11,43
348,749	-13,14
348,955	42,15
349,161	-35,67
349,367	48,3
349,573	5,29
349,779	-25,43
349,985	25,77
350,191	5,29
350,397	-7
350,603	29,87
350,809	-15,19
351,015	15,53
351,221	23,72
351,427	56,49
351,633	29,87
351,839	-0,85
352,045	42,15
352,251	62,63
352,457	36,01
352,663	11,43
352,869	19,63
353,075	-13,14
353,28	81,07
353,486	13,48
353,692	19,63
353,898	60,59
354,104	48,3
354,31	5,29
354,515	13,48
354,721	-17,24
354,927	31,91
355,133	17,58
355,339	44,2
355,544	-19,29
355,75	54,44
355,956	79,02
356,162	-2,9
356,367	5,29
356,573	-15,19
356,779	-21,33
356,984	19,63
357,19	54,44
357,396	19,63
357,602	15,53
357,807	-29,52
358,013	48,3
358,218	25,77
358,424	11,43
358,63	21,67
358,835	-39,76
359,041	13,48
359,247	-15,19
359,452	38,06
359,658	-7
359,863	21,67
360,069	62,63
360,274	115,88
360,48	48,3
360,685	72,87
360,891	42,15
361,097	-37,72
361,302	17,58
361,508	-11,09
361,713	25,77
361,918	21,67
362,124	15,53
362,329	42,15
362,535	5,29
362,74	76,97
362,946	19,63
363,151	31,91
363,357	-7
363,562	21,67
363,767	21,67
363,973	-78,68
364,178	-23,38
364,383	-93,01
364,589	-27,48
364,794	-37,72
365	81,07
365,205	-0,85
365,41	33,96
365,615	42,15
365,821	-17,24
366,026	25,77
366,231	50,35
366,437	-13,14
366,642	-45,91
366,847	9,39
367,052	-19,29
367,258	25,77
367,463	38,06
367,668	79,02
367,873	29,87
368,078	-31,57
368,284	-43,86
368,489	29,87
368,694	-13,14
368,899	25,77
369,104	-9,05
369,309	-27,48
369,515	-23,38
369,72	17,58
369,925	15,53
370,13	66,73
370,335	46,25
370,54	54,44
370,745	11,43
370,95	11,43
371,155	46,25
371,36	58,54
371,565	72,87
371,77	-17,24
371,975	-37,72
372,18	15,53
372,385	-13,14
372,59	15,53
372,795	60,59
373	46,25
373,205	-7
373,41	-37,72
373,615	3,24
373,82	42,15
374,025	-19,29
374,23	-21,33
374,435	17,58
374,64	9,39
374,845	70,83
375,05	21,67
375,254	46,25
375,459	19,63
375,664	3,24
375,869	-4,95
376,074	-7
376,279	-15,19
376,483	9,39
376,688	11,43
376,893	62,63
377,098	62,63
377,303	103,59
377,507	-41,81
377,712	5,29
377,917	11,43
378,122	-21,33
378,326	17,58
378,531	9,39
378,736	31,91
378,94	-11,09
379,145	50,35
379,35	1,19
379,554	44,2
379,759	40,11
379,964	-27,48
380,168	-39,76
380,373	33,96
380,578	-13,14
380,782	68,78
380,987	52,39
381,191	9,39
381,396	-21,33
381,601	5,29
381,805	29,87
382,01	-19,29
382,214	-0,85
382,419	103,59
382,623	3,24
382,828	27,82
383,032	-13,14
383,237	76,97
383,441	38,06
383,646	54,44
383,85	7,34
384,055	62,63
384,259	72,87
384,464	62,63
384,668	46,25
384,872	33,96
385,077	44,2
385,281	64,68
385,486	5,29
385,69	23,72
385,894	-13,14
386,099	19,63
386,303	-33,62
386,507	52,39
386,712	11,43
386,916	64,68
387,12	13,48
387,325	81,07
387,529	-29,52
387,733	-4,95
387,937	25,77
388,142	-7
388,346	-29,52
388,55	74,92
388,754	72,87
388,959	-15,19
389,163	-45,91
389,367	13,48
389,571	40,11
389,775	89,26
389,98	46,25
390,184	21,67
390,388	11,43
390,592	36,01
390,796	9,39
391	-33,62
391,204	-37,72
391,409	79,02
391,613	58,54
391,817	91,31
392,021	58,54
392,225	60,59
392,429	13,48
392,633	-54,1
392,837	13,48
393,041	-25,43
393,245	70,83
393,449	3,24
393,653	9,39
393,857	29,87
394,061	-19,29
394,265	25,77
394,469	54,44
394,673	46,25
394,877	38,06
395,081	62,63
395,285	62,63
395,489	46,25
395,693	21,67
395,896	-58,2
396,1	19,63
396,304	31,91
396,508	33,96
396,712	81,07
396,916	-4,95
397,12	54,44
397,323	13,48
397,527	19,63
397,731	58,54
397,935	31,91
398,139	23,72
398,342	-9,05
398,546	21,67
398,75	44,2
398,954	31,91
399,157	-29,52
399,361	15,53
399,565	40,11
399,769	-4,95
399,972	66,73
400,176	15,53
400,38	-15,19
400,583	17,58
400,787	21,67
400,991	38,06
401,194	56,49
401,398	-9,05
401,601	23,72
401,805	62,63
402,009	56,49
402,212	38,06
402,416	70,83
402,619	25,77
402,823	58,54
403,026	13,48
403,23	50,35
403,433	38,06
403,637	25,77
403,841	7,34
404,044	-9,05
404,247	-9,05
404,451	23,72
404,654	107,69
404,858	56,49
405,061	-0,85
405,265	29,87
405,468	60,59
405,672	-2,9
405,875	95,4
406,078	3,24
406,282	-23,38
406,485	27,82
406,689	15,53
406,892	-7
407,095	9,39
407,299	-19,29
407,502	29,87
407,705	79,02
407,909	1,19
408,112	76,97
408,315	81,07
408,518	38,06
408,722	21,67
408,925	7,34
409,128	40,11
409,331	-11,09
409,535	-21,33
409,738	27,82
409,941	-4,95
410,144	19,63
410,347	13,48
410,551	9,39
410,754	-0,85
410,957	7,34
411,16	29,87
411,363	-56,15
411,566	81,07
411,769	-7
411,973	-13,14
412,176	-11,09
412,379	68,78
412,582	36,01
412,785	15,53
412,988	-2,9
413,191	-11,09
413,394	5,29
413,597	3,24
413,8	-13,14
414,003	-17,24
414,206	52,39
414,409	17,58
414,612	25,77
414,815	83,11
415,018	115,88
415,221	17,58
415,424	72,87
415,627	50,35
415,83	7,34
416,033	64,68
416,235	-13,14
416,438	21,67
416,641	-13,14
416,844	54,44
417,047	25,77
417,25	3,24
417,453	60,59
417,655	-2,9
417,858	52,39
418,061	19,63
418,264	58,54
418,467	-13,14
418,669	50,35
418,872	27,82
419,075	21,67
419,278	36,01
419,48	31,91
419,683	64,68
419,886	31,91
420,089	46,25
420,291	76,97
420,494	-43,86
420,697	3,24
420,899	-4,95
421,102	-29,52
421,305	40,11
421,507	15,53
421,71	70,83
421,912	29,87
422,115	40,11
422,318	-13,14
422,52	58,54
422,723	33,96
422,925	15,53
423,128	62,63
423,33	-0,85
423,533	40,11
423,735	-19,29
423,938	25,77
424,14	-70,48
424,343	48,3
424,545	58,54
424,748	27,82
424,95	68,78
425,153	-11,09
425,355	11,43
425,558	46,25
425,76	38,06
425,962	52,39
426,165	29,87
426,367	27,82
426,57	-4,95
426,772	95,4
426,974	50,35
427,177	-54,1
427,379	15,53
427,581	50,35
427,784	11,43
427,986	46,25
428,188	46,25
428,39	25,77
428,593	60,59
428,795	9,39
428,997	31,91
429,2	-2,9
429,402	33,96
429,604	-19,29
429,806	3,24
430,008	81,07
430,211	27,82
430,413	52,39
430,615	58,54
430,817	93,35
431,019	29,87
431,221	15,53
431,423	13,48
431,626	19,63
431,828	-0,85
432,03	-7
432,232	70,83
432,434	33,96
432,636	52,39
432,838	15,53
433,04	62,63
433,242	23,72
433,444	27,82
433,646	40,11
433,848	23,72
434,05	-27,48
434,252	72,87
434,454	46,25
434,656	76,97
434,858	9,39
435,06	13,48
435,262	70,83
435,464	11,43
435,666	50,35
435,868	19,63
436,07	19,63
436,271	33,96
436,473	27,82
436,675	36,01
436,877	60,59
437,079	3,24
437,281	21,67
437,482	142,5
437,684	54,44
437,886	-33,62
438,088	1,19
438,29	1,19
438,491	-11,09
438,693	33,96
438,895	62,63
439,097	56,49
439,298	36,01
439,5	-56,15
439,702	93,35
439,903	-15,19
440,105	38,06
440,307	36,01
440,508	-4,95
440,71	79,02
440,912	23,72
441,113	-29,52
441,315	-25,43
441,517	-11,09
441,718	31,91
441,92	54,44
442,121	44,2
442,323	31,91
442,524	38,06
442,726	52,39
442,928	19,63
443,129	68,78
443,331	-7
443,532	58,54
443,734	-7
443,935	-82,77
444,136	-47,96
444,338	95,4
444,539	13,48
444,741	27,82
444,942	79,02
445,144	3,24
445,345	7,34
445,546	-9,05
445,748	48,3
445,949	85,16
446,151	-25,43
446,352	-31,57
446,553	54,44
446,755	81,07
446,956	15,53
447,157	70,83
447,359	-27,48
447,56	36,01
447,761	33,96
447,962	91,31
448,164	17,58
448,365	21,67
448,566	52,39
448,767	-4,95
448,969	50,35
449,17	-21,33
449,371	-4,95
449,572	87,21
449,773	-4,95
449,974	3,24
450,176	33,96
450,377	9,39
450,578	25,77
450,779	-9,05
450,98	105,64
451,181	17,58
451,382	-21,33
451,583	19,63
451,784	-21,33
451,986	-41,81
452,187	-15,19
452,388	-0,85
452,589	38,06
452,79	9,39
452,991	66,73
453,192	19,63
453,393	9,39
453,594	70,83
453,795	27,82
453,995	83,11
454,196	136,36
454,397	128,17
454,598	64,68
454,799	87,21
455	33,96
455,201	27,82
455,402	50,35
455,603	48,3
455,804	7,34
456,004	27,82
456,205	-9,05
456,406	7,34
456,607	103,59
456,808	27,82
457,008	70,83
457,209	-37,72
457,41	15,53
457,611	13,48
457,811	54,44
458,012	81,07
458,213	64,68
458,414	70,83
458,614	62,63
458,815	33,96
459,016	54,44
459,216	5,29
459,417	115,88
459,618	23,72
459,818	64,68
460,019	13,48
460,22	15,53
460,42	3,24
460,621	19,63
460,821	-13,14
461,022	70,83
461,223	-27,48
461,423	74,92
461,624	29,87
461,824	-7
462,025	5,29
462,225	48,3
462,426	27,82
462,626	64,68
462,827	-7
463,027	62,63
463,228	-33,62
463,428	97,45
463,628	19,63
463,829	79,02
464,029	-45,91
464,23	-4,95
464,43	29,87
464,63	25,77
464,831	15,53
465,031	52,39
465,231	122,02
465,432	42,15
465,632	95,4
465,832	87,21
466,033	40,11
466,233	91,31
466,433	5,29
466,634	60,59
466,834	46,25
467,034	5,29
467,234	13,48
467,435	48,3
467,635	13,48
467,835	46,25
468,035	13,48
468,235	68,78
468,436	-0,85
468,636	58,54
468,836	-2,9
469,036	9,39
469,236	62,63
469,436	58,54
469,636	13,48
469,836	60,59
470,037	13,48
470,237	54,44
470,437	99,5
470,637	27,82
470,837	60,59
471,037	52,39
471,237	-17,24
471,437	58,54
471,637	29,87
471,837	124,07
472,037	87,21
472,237	50,35
472,437	-9,05
472,637	56,49
472,837	25,77
473,036	25,77
473,236	142,5
473,436	105,64
473,636	11,43
473,836	15,53
474,036	-2,9
474,236	25,77
474,436	44,2
474,635	33,96
474,835	9,39
475,035	-17,24
475,235	38,06
475,435	76,97
475,634	-2,9
475,834	44,2
476,034	46,25
476,234	66,73
476,433	7,34
476,633	9,39
476,833	138,41
477,033	95,4
477,232	38,06
477,432	19,63
477,632	105,64
477,831	3,24
478,031	-17,24
478,231	70,83
478,43	70,83
478,63	72,87
478,829	44,2
479,029	-39,76
479,229	38,06
479,428	76,97
479,628	-19,29
479,827	9,39
480,027	23,72
480,226	44,2
480,426	19,63
480,625	11,43
480,825	13,48
481,024	27,82
481,224	7,34
481,423	23,72
481,623	3,24
481,822	42,15
482,021	13,48
482,221	21,67
482,42	15,53
482,62	-2,9
482,819	-23,38
483,018	25,77
483,218	25,77
483,417	11,43
483,616	-27,48
483,816	-23,38
484,015	101,55
484,214	85,16
484,414	87,21
484,613	15,53
484,812	36,01
485,011	97,45
485,211	48,3
485,41	81,07
485,609	62,63
485,808	23,72
486,008	17,58
486,207	54,44
486,406	68,78
486,605	23,72
486,804	3,24
487,003	-17,24
487,203	60,59
487,402	103,59
487,601	23,72
487,8	44,2
487,999	48,3
488,198	76,97
488,397	64,68
488,596	40,11
488,795	5,29
488,994	62,63
489,193	27,82
489,392	-25,43
489,591	40,11
489,79	64,68
489,989	-7
490,188	29,87
490,387	44,2
490,586	38,06
490,785	36,01
490,984	54,44
491,183	36,01
491,382	97,45
491,581	72,87
491,779	33,96
491,978	148,65
492,177	152,74
492,376	156,84
492,575	85,16
492,774	105,64
492,972	105,64
493,171	29,87
493,37	21,67
493,569	25,77
493,768	95,4
493,966	-2,9
494,165	54,44
494,364	-13,14
494,563	62,63
494,761	3,24
494,96	97,45
495,159	42,15
495,357	21,67
495,556	21,67
495,755	66,73
495,953	134,31
496,152	214,18
496,35	339,11
496,549	367,78
496,748	435,36
496,946	504,99
497,145	441,51
497,343	380,07
497,542	179,37
497,74	218,28
497,939	148,65
498,137	119,98
498,336	76,97
498,534	-19,29
498,733	-2,9
498,931	134,31
499,13	70,83
499,328	15,53
499,527	87,21
499,725	29,87
499,924	54,44
500,122	60,59
500,32	29,87
500,519	70,83
500,717	70,83
500,915	-35,67
501,114	9,39
501,312	46,25
501,51	62,63
501,709	25,77
501,907	-7
502,105	40,11
502,304	-47,96
502,502	81,07
502,7	15,53
502,898	27,82
503,097	52,39
503,295	-7
503,493	72,87
503,691	23,72
503,889	58,54
504,088	36,01
504,286	1,19
504,484	27,82
504,682	-4,95
504,88	29,87
505,078	74,92
505,276	62,63
505,474	79,02
505,672	109,74
505,871	50,35
506,069	-64,34
506,267	19,63
506,465	46,25
506,663	58,54
506,861	68,78
507,059	56,49
507,257	119,98
507,455	89,26
507,653	72,87
507,851	21,67
508,049	117,93
508,246	29,87
508,444	19,63
508,642	15,53
508,84	62,63
509,038	79,02
509,236	17,58
509,434	29,87
509,632	76,97
509,829	72,87
510,027	50,35
510,225	-15,19
510,423	3,24
510,621	40,11
510,818	44,2
511,016	19,63
511,214	85,16
511,412	31,91
511,609	-4,95
511,807	-19,29
512,005	17,58
512,203	48,3
512,4	46,25
512,598	101,55
512,796	36,01
512,993	54,44
513,191	64,68
513,389	85,16
513,586	177,32
513,784	208,04
513,981	160,94
514,179	103,59
514,377	140,46
514,574	62,63
514,772	64,68
514,969	70,83
515,167	56,49
515,364	1,19
515,562	36,01
515,759	38,06
515,957	11,43
516,154	79,02
516,352	19,63
516,549	-0,85
516,746	72,87
516,944	68,78
517,141	-23,38
517,339	27,82
517,536	68,78
517,733	36,01
517,931	-7
518,128	38,06
518,325	54,44
518,523	62,63
518,72	79,02
518,917	58,54
519,115	74,92
519,312	33,96
519,509	15,53
519,707	46,25
519,904	9,39
520,101	13,48
520,298	79,02
520,495	7,34
520,693	48,3
520,89	33,96
521,087	33,96
521,284	13,48
521,481	40,11
521,678	44,2
521,876	27,82
522,073	40,11
522,27	21,67
522,467	107,69
522,664	70,83
522,861	13,48
523,058	113,83
523,255	21,67
523,452	52,39
523,649	-13,14
523,846	50,35
524,043	-41,81
524,24	60,59
524,437	21,67
524,634	27,82
524,831	36,01
525,028	19,63
525,225	93,35
525,422	62,63
525,619	101,55
525,816	56,49
526,013	97,45
526,209	33,96
526,406	95,4
526,603	27,82
526,8	50,35
526,997	-29,52
527,194	36,01
527,39	21,67
527,587	50,35
527,784	44,2
527,981	101,55
528,177	60,59
528,374	-17,24
528,571	44,2
528,768	83,11
528,964	7,34
529,161	83,11
529,358	-4,95
529,554	-0,85
529,751	54,44
529,948	46,25
530,144	76,97
530,341	3,24
530,537	44,2
530,734	19,63
530,931	95,4
531,127	29,87
531,324	58,54
531,52	7,34
531,717	52,39
531,913	25,77
532,11	76,97
532,306	-4,95
532,503	7,34
532,699	46,25
532,896	56,49
533,092	60,59
533,289	103,59
533,485	81,07
533,682	21,67
533,878	38,06
534,074	60,59
534,271	42,15
534,467	105,64
534,664	11,43
534,86	54,44
535,056	36,01
535,253	36,01
535,449	87,21
535,645	23,72
535,841	-4,95
536,038	44,2
536,234	50,35
536,43	109,74
536,626	36,01
536,823	11,43
537,019	62,63
537,215	25,77
537,411	-74,58
537,607	70,83
537,804	64,68
538	15,53
538,196	17,58
538,392	36,01
538,588	83,11
538,784	87,21
538,98	-7
539,176	-7
539,373	54,44
539,569	60,59
539,765	7,34
539,961	-2,9
540,157	31,91
540,353	70,83
540,549	17,58
540,745	105,64
540,941	62,63
541,137	3,24
541,333	62,63
541,528	-15,19
541,724	38,06
541,92	62,63
542,116	99,5
542,312	58,54
542,508	5,29
542,704	19,63
542,9	17,58
543,096	76,97
543,291	89,26
543,487	27,82
543,683	93,35
543,879	79,02
544,075	36,01
544,27	15,53
544,466	79,02
544,662	15,53
544,858	36,01
545,053	36,01
545,249	54,44
545,445	48,3
545,64	74,92
545,836	38,06
546,032	117,93
546,227	54,44
546,423	-2,9
546,619	19,63
546,814	19,63
547,01	68,78
547,205	54,44
547,401	40,11
547,597	40,11
547,792	-2,9
547,988	-9,05
548,183	40,11
548,379	130,22
548,574	83,11
548,77	81,07
548,965	42,15
549,161	13,48
549,356	81,07
549,552	19,63
549,747	95,4
549,942	62,63
550,138	46,25
550,333	27,82
550,529	99,5
550,724	105,64
550,919	103,59
551,115	-29,52
551,31	107,69
551,505	83,11
551,701	38,06
551,896	101,55
552,091	50,35
552,287	64,68
552,482	91,31
552,677	130,22
552,872	113,83
553,067	87,21
553,263	66,73
553,458	60,59
553,653	76,97
553,848	27,82
554,043	85,16
554,239	115,88
554,434	103,59
554,629	66,73
554,824	72,87
555,019	7,34
555,214	31,91
555,409	68,78
555,604	76,97
555,799	-4,95
555,994	25,77
556,189	83,11
556,384	87,21
556,579	105,64
556,774	52,39
556,969	144,55
557,164	58,54
557,359	122,02
557,554	31,91
557,749	42,15
557,944	74,92
558,139	81,07
558,334	95,4
558,529	23,72
558,724	64,68
558,918	119,98
559,113	105,64
559,308	140,46
559,503	181,42
559,698	70,83
559,893	91,31
560,087	66,73
560,282	60,59
560,477	150,7
560,672	95,4
560,866	128,17
561,061	107,69
561,256	146,6
561,45	76,97
561,645	111,78
561,84	117,93
562,034	158,89
562,229	103,59
562,424	109,74
562,618	105,64
562,813	91,31
563,008	175,27
563,202	81,07
563,397	87,21
563,591	113,83
563,786	144,55
563,98	103,59
564,175	117,93
564,369	177,32
564,564	189,61
564,758	177,32
564,953	193,7
565,147	142,5
565,342	162,98
565,536	218,28
565,731	298,15
565,925	423,08
566,119	943,26
566,314	1602,71
566,508	2432,13
566,703	3314,81
566,897	4189,29
567,091	4787,3
567,286	4715,62
567,48	4492,39
567,674	3681,39
567,868	2831,49
568,063	1967,24
568,257	1653,91
568,451	1184,92
568,646	947,36
568,84	666,78
569,034	486,56
569,228	380,07
569,422	281,77
569,616	292,01
569,811	300,2
570,005	224,42
570,199	230,57
570,393	212,14
570,587	261,29
570,781	201,9
570,975	242,85
571,169	113,83
571,364	189,61
571,558	193,7
571,752	142,5
571,946	242,85
572,14	214,18
572,334	205,99
572,528	238,76
572,722	212,14
572,916	142,5
573,109	189,61
573,303	201,9
573,497	142,5
573,691	216,23
573,885	179,37
574,079	189,61
574,273	271,53
574,467	185,51
574,661	195,75
574,854	201,9
575,048	259,24
575,242	156,84
575,436	228,52
575,63	324,77
575,823	185,51
576,017	205,99
576,211	292,01
576,405	242,85
576,598	228,52
576,792	224,42
576,986	216,23
577,18	257,19
577,373	287,91
577,567	267,43
577,761	216,23
577,954	277,67
578,148	259,24
578,341	275,62
578,535	263,33
578,729	253,09
578,922	242,85
579,116	294,05
579,309	335,01
579,503	328,87
579,696	302,25
579,89	308,39
580,083	332,97
580,277	308,39
580,47	406,69
580,664	617,63
580,857	660,64
581,051	724,13
581,244	906,4
581,437	865,44
581,631	904,35
581,824	1004,7
582,018	953,5
582,211	875,68
582,404	785,57
582,598	742,56
582,791	732,32
582,984	607,39
583,178	668,83
583,371	662,69
583,564	689,31
583,757	720,03
583,951	754,85
584,144	822,43
584,337	746,66
584,53	939,16
584,723	1029,27
584,917	1092,76
585,11	1213,59
585,303	1313,94
585,496	1479,83
585,689	1926,29
585,882	2413,7
586,075	4461,67
586,268	12774,38
586,462	58437,93
586,655	62810,35
586,848	63389,92
587,041	64506,07
587,234	64506,07
587,427	64506,07
587,62	64506,07
587,813	64506,07
588,006	64506,07
588,199	64506,07
588,392	64506,07
588,585	64506,07
588,777	64506,07
588,97	64506,07
589,163	64506,07
589,356	64506,07
589,549	64506,07
589,742	64506,07
589,935	64506,07
590,128	64506,07
590,32	64506,07
590,513	64506,07
590,706	64506,07
590,899	64506,07
591,092	64506,07
591,284	64506,07
591,477	64506,07
591,67	64506,07
591,863	64506,07
592,055	64506,07
592,248	64506,07
592,441	64506,07
592,633	64506,07
592,826	64506,07
593,019	64506,07
593,211	64506,07
593,404	64506,07
593,596	64506,07
593,789	64506,07
593,982	64506,07
594,174	64506,07
594,367	64506,07
594,559	64506,07
594,752	64506,07
594,944	64506,07
595,137	64506,07
595,329	64506,07
595,522	64506,07
595,714	64506,07
595,907	64506,07
596,099	64506,07
596,292	64506,07
596,484	64506,07
596,676	64506,07
596,869	64506,07
597,061	64506,07
597,253	64506,07
597,446	64506,07
597,638	64506,07
597,83	64506,07
598,023	64506,07
598,215	64506,07
598,407	64506,07
598,6	64506,07
598,792	64506,07
598,984	64506,07
599,176	64506,07
599,369	64506,07
599,561	64506,07
599,753	64506,07
599,945	64506,07
600,137	64506,07
600,329	64506,07
600,522	64506,07
600,714	64506,07
600,906	64506,07
601,098	64506,07
601,29	64506,07
601,482	64506,07
601,674	64506,07
601,866	64506,07
602,058	64506,07
602,25	64506,07
602,442	64506,07
602,634	64506,07
602,826	64506,07
603,018	64506,07
603,21	64506,07
603,402	64506,07
603,594	64506,07
603,786	64506,07
603,978	64506,07
604,17	15059,91
604,362	1500,31
604,554	249
604,745	320,68
604,937	287,91
605,129	277,67
605,321	265,38
605,513	273,57
605,704	242,85
605,896	224,42
606,088	251,05
606,28	154,79
606,471	273,57
606,663	251,05
606,855	183,46
607,047	208,04
607,238	271,53
607,43	249
607,622	218,28
607,813	154,79
608,005	185,51
608,197	238,76
608,388	162,98
608,58	230,57
608,771	242,85
608,963	263,33
609,154	189,61
609,346	240,81
609,537	181,42
609,729	251,05
609,921	187,56
610,112	189,61
610,303	203,94
610,495	140,46
610,686	154,79
610,878	197,8
611,069	169,13
611,261	216,23
611,452	205,99
611,643	203,94
611,835	175,27
612,026	205,99
612,217	152,74
612,409	130,22
612,6	152,74
612,791	171,18
612,983	246,95
613,174	373,92
613,365	439,46
613,557	562,34
613,748	715,94
613,939	881,82
614,13	994,46
614,321	1029,27
614,513	1062,04
614,704	965,79
614,895	828,57
615,086	658,59
615,277	591,01
615,468	480,42
615,659	349,35
615,851	320,68
616,042	267,43
616,233	242,85
616,424	216,23
616,615	201,9
616,806	144,55
616,997	199,85
617,188	175,27
617,379	177,32
617,57	193,7
617,761	113,83
617,952	173,22
618,143	124,07
618,334	181,42
618,524	144,55
618,715	103,59
618,906	142,5
619,097	117,93
619,288	132,26
619,479	99,5
619,67	97,45
619,86	181,42
620,051	119,98
620,242	113,83
620,433	119,98
620,624	87,21
620,814	158,89
621,005	111,78
621,196	191,66
621,386	111,78
621,577	103,59
621,768	66,73
621,958	126,12
622,149	154,79
622,34	185,51
622,53	128,17
622,721	124,07
622,912	119,98
623,102	97,45
623,293	183,46
623,483	111,78
623,674	54,44
623,864	83,11
624,055	95,4
624,245	60,59
624,436	91,31
624,626	124,07
624,817	185,51
625,007	113,83
625,198	79,02
625,388	124,07
625,579	74,92
625,769	91,31
625,959	72,87
626,15	70,83
626,34	134,31
626,531	130,22
626,721	115,88
626,911	152,74
627,101	122,02
627,292	148,65
627,482	113,83
627,672	79,02
627,863	175,27
628,053	189,61
628,243	122,02
628,433	91,31
628,623	48,3
628,814	132,26
629,004	42,15
629,194	56,49
629,384	115,88
629,574	140,46
629,764	126,12
629,955	160,94
630,145	115,88
630,335	117,93
630,525	56,49
630,715	148,65
630,905	132,26
631,095	70,83
631,285	134,31
631,475	62,63
631,665	109,74
631,855	162,98
632,045	115,88
632,235	31,91
632,425	109,74
632,615	134,31
632,805	42,15
632,994	132,26
633,184	87,21
633,374	171,18
633,564	117,93
633,754	128,17
633,944	97,45
634,133	46,25
634,323	128,17
634,513	142,5
634,703	113,83
634,893	46,25
635,082	70,83
635,272	128,17
635,462	142,5
635,651	83,11
635,841	103,59
636,031	87,21
636,221	68,78
636,41	70,83
636,6	79,02
636,789	101,55
636,979	136,36
637,169	58,54
637,358	105,64
637,548	87,21
637,737	58,54
637,927	27,82
638,116	113,83
638,306	91,31
638,495	70,83
638,685	191,66
638,874	68,78
639,064	70,83
639,253	46,25
639,443	76,97
639,632	93,35
639,822	64,68
640,011	115,88
640,2	97,45
640,39	42,15
640,579	81,07
640,768	101,55
640,958	113,83
641,147	58,54
641,336	66,73
641,526	27,82
641,715	101,55
641,904	117,93
642,093	152,74
642,283	115,88
642,472	33,96
642,661	60,59
642,85	64,68
643,039	58,54
643,228	144,55
643,418	68,78
643,607	105,64
643,796	66,73
643,985	44,2
644,174	107,69
644,363	38,06
644,552	52,39
644,741	38,06
644,93	124,07
645,119	95,4
645,308	103,59
645,497	148,65
645,686	111,78
645,875	101,55
646,064	58,54
646,253	36,01
646,442	113,83
646,631	62,63
646,82	81,07
647,009	109,74
647,198	62,63
647,387	79,02
647,575	58,54
647,764	187,56
647,953	27,82
648,142	138,41
648,331	31,91
648,519	107,69
648,708	38,06
648,897	68,78
649,086	85,16
649,274	-4,95
649,463	76,97
649,652	31,91
649,84	19,63
650,029	9,39
650,218	68,78
650,406	-13,14
650,595	9,39
650,784	85,16
650,972	17,58
651,161	113,83
651,349	68,78
651,538	128,17
651,726	58,54
651,915	44,2
652,104	21,67
652,292	76,97
652,481	119,98
652,669	117,93
652,857	52,39
653,046	56,49
653,234	93,35
653,423	122,02
653,611	62,63
653,8	48,3
653,988	109,74
654,176	42,15
654,365	1,19
654,553	56,49
654,741	33,96
654,93	103,59
655,118	15,53
655,306	74,92
655,494	62,63
655,683	7,34
655,871	68,78
656,059	99,5
656,247	62,63
656,436	23,72
656,624	68,78
656,812	48,3
657	40,11
657,188	11,43
657,376	68,78
657,564	124,07
657,753	-11,09
657,941	1,19
658,129	97,45
658,317	17,58
658,505	40,11
658,693	64,68
658,881	25,77
659,069	27,82
659,257	54,44
659,445	105,64
659,633	64,68
659,821	38,06
660,009	52,39
660,197	62,63
660,384	-0,85
660,572	89,26
660,76	50,35
660,948	87,21
661,136	50,35
661,324	33,96
661,512	89,26
661,699	46,25
661,887	87,21
662,075	50,35
662,263	54,44
662,451	-9,05
662,638	42,15
662,826	56,49
663,014	79,02
663,201	97,45
663,389	58,54
663,577	50,35
663,764	95,4
663,952	60,59
664,14	81,07
664,327	64,68
664,515	79,02
664,702	68,78
664,89	25,77
665,078	52,39
665,265	66,73
665,453	9,39
665,64	40,11
665,828	19,63
666,015	40,11
666,203	56,49
666,39	56,49
666,578	27,82
666,765	7,34
666,952	56,49
667,14	38,06
667,327	54,44
667,515	11,43
667,702	46,25
667,889	56,49
668,077	29,87
668,264	107,69
668,451	21,67
668,638	31,91
668,826	23,72
669,013	60,59
669,2	46,25
669,388	21,67
669,575	-43,86
669,762	-2,9
669,949	46,25
670,136	91,31
670,323	60,59
670,511	44,2
670,698	62,63
670,885	13,48
671,072	48,3
671,259	81,07
671,446	-21,33
671,633	48,3
671,82	40,11
672,007	44,2
672,194	52,39
672,381	42,15
672,568	-7
672,755	25,77
672,942	9,39
673,129	5,29
673,316	17,58
673,503	68,78
673,69	97,45
673,877	62,63
674,064	132,26
674,251	83,11
674,437	93,35
674,624	70,83
674,811	7,34
674,998	62,63
675,185	68,78
675,372	21,67
675,558	-2,9
675,745	99,5
675,932	93,35
676,119	23,72
676,305	81,07
676,492	9,39
676,679	111,78
676,865	38,06
677,052	-31,57
677,239	19,63
677,425	7,34
677,612	33,96
677,798	15,53
677,985	33,96
678,172	23,72
678,358	79,02
678,545	79,02
678,731	95,4
678,918	25,77
679,104	42,15
679,291	93,35
679,477	25,77
679,664	-17,24
679,85	54,44
680,036	3,24
680,223	93,35
680,409	89,26
680,596	68,78
680,782	54,44
680,968	54,44
681,155	23,72
681,341	31,91
681,527	-39,76
681,714	7,34
681,9	54,44
682,086	76,97
682,272	-56,15
682,459	-2,9
682,645	29,87
682,831	1,19
683,017	31,91
683,204	52,39
683,39	-15,19
683,576	36,01
683,762	-19,29
683,948	-52,05
684,134	85,16
684,32	66,73
684,506	95,4
684,693	58,54
684,879	5,29
685,065	56,49
685,251	66,73
685,437	40,11
685,623	33,96
685,809	52,39
685,995	1,19
686,181	38,06
686,366	3,24
686,552	23,72
686,738	3,24
686,924	-35,67
687,11	25,77
687,296	-19,29
687,482	36,01
687,668	-7
687,853	38,06
688,039	36,01
688,225	38,06
688,411	113,83
688,597	60,59
688,782	42,15
688,968	38,06
689,154	52,39
689,34	111,78
689,525	-9,05
689,711	38,06
689,897	76,97
690,082	-0,85
690,268	-11,09
690,454	33,96
690,639	54,44
690,825	7,34
691,01	36,01
691,196	7,34
691,381	36,01
691,567	19,63
691,753	31,91
691,938	42,15
692,124	25,77
692,309	5,29
692,494	-29,52
692,68	58,54
692,865	11,43
693,051	-15,19
693,236	33,96
693,422	87,21
693,607	60,59
693,792	48,3
693,978	210,09
694,163	459,94
694,348	890,01
694,534	1176,73
694,719	1277,08
694,904	1346,71
695,089	1254,55
695,275	1004,7
695,46	752,8
695,645	601,25
695,83	355,49
696,016	345,25
696,201	255,14
696,386	199,85
696,571	173,22
696,756	105,64
696,941	103,59
697,126	33,96
697,311	72,87
697,497	83,11
697,682	52,39
697,867	42,15
698,052	50,35
698,237	1,19
698,422	68,78
698,607	38,06
698,792	-31,57
698,977	-50
699,162	-15,19
699,347	1,19
699,531	66,73
699,716	3,24
699,901	38,06
700,086	60,59
700,271	21,67
700,456	-2,9
700,641	15,53
700,825	58,54
701,01	29,87
701,195	74,92
701,38	19,63
701,565	1,19
701,749	36,01
701,934	11,43
702,119	81,07
702,303	-15,19
702,488	99,5
702,673	54,44
702,857	17,58
703,042	19,63
703,227	5,29
703,411	-11,09
703,596	93,35
703,78	25,77
703,965	66,73
704,15	113,83
704,334	318,63
704,519	519,33
704,703	726,18
704,888	806,05
705,072	828,57
705,257	781,47
705,441	586,91
705,625	380,07
705,81	312,49
705,994	201,9
706,179	220,33
706,363	193,7
706,547	150,7
706,732	109,74
706,916	79,02
707,1	29,87
707,285	68,78
707,469	66,73
707,653	107,69
707,837	33,96
708,022	64,68
708,206	70,83
708,39	-13,14
708,574	25,77
708,759	15,53
708,943	42,15
709,127	-13,14
709,311	36,01
709,495	40,11
709,679	13,48
709,863	44,2
710,047	7,34
710,231	52,39
710,415	85,16
710,6	-62,29
710,784	54,44
710,968	-15,19
711,152	27,82
711,336	21,67
711,519	44,2
711,703	-0,85
711,887	-39,76
712,071	29,87
712,255	33,96
712,439	60,59
712,623	52,39
712,807	74,92
712,991	50,35
713,174	15,53
713,358	99,5
713,542	70,83
713,726	56,49
713,91	76,97
714,093	23,72
714,277	19,63
714,461	23,72
714,645	-21,33
714,828	5,29
715,012	23,72
715,196	19,63
715,379	29,87
715,563	11,43
715,747	-37,72
715,93	3,24
716,114	19,63
716,297	25,77
716,481	33,96
716,664	42,15
716,848	-29,52
717,031	31,91
717,215	52,39
717,398	31,91
717,582	9,39
717,765	-0,85
717,949	-25,43
718,132	1,19
718,316	-11,09
718,499	85,16
718,682	46,25
718,866	66,73
719,049	1,19
719,233	62,63
719,416	11,43
719,599	62,63
719,782	-13,14
719,966	48,3
720,149	21,67
720,332	33,96
720,515	36,01
720,699	58,54
720,882	54,44
721,065	11,43
721,248	44,2
721,431	-11,09
721,615	36,01
721,798	-2,9
721,981	-35,67
722,164	11,43
722,347	25,77
722,53	48,3
722,713	9,39
722,896	13,48
723,079	64,68
723,262	50,35
723,445	17,58
723,628	3,24
723,811	11,43
723,994	-45,91
724,177	19,63
724,36	-2,9
724,543	-0,85
724,726	-25,43
724,909	138,41
725,091	216,23
725,274	226,47
725,457	308,39
725,64	304,29
725,823	277,67
726,006	124,07
726,188	103,59
726,371	191,66
726,554	70,83
726,737	79,02
726,919	83,11
727,102	68,78
727,285	95,4
727,467	21,67
727,65	-25,43
727,833	15,53
728,015	79,02
728,198	-4,95
728,38	-7
728,563	7,34
728,746	42,15
728,928	33,96
729,111	29,87
729,293	21,67
729,476	40,11
729,658	38,06
729,841	62,63
730,023	25,77
730,205	38,06
730,388	3,24
730,57	42,15
730,753	29,87
730,935	19,63
731,117	38,06
731,3	19,63
731,482	-27,48
731,664	21,67
731,847	-27,48
732,029	40,11
732,211	29,87
732,394	60,59
732,576	19,63
732,758	76,97
732,94	52,39
733,122	23,72
733,305	105,64
733,487	44,2
733,669	-2,9
733,851	-4,95
734,033	91,31
734,215	36,01
734,397	87,21
734,58	58,54
734,762	81,07
734,944	11,43
735,126	31,91
735,308	48,3
735,49	111,78
735,672	144,55
735,854	249
736,036	572,58
736,218	963,74
736,399	1254,55
736,581	1373,33
736,763	1367,19
736,945	1268,89
737,127	883,87
737,309	668,83
737,491	535,71
737,672	447,65
737,854	277,67
738,036	314,53
738,218	119,98
738,4	54,44
738,581	132,26
738,763	119,98
738,945	111,78
739,127	29,87
739,308	1,19
739,49	48,3
739,672	50,35
739,853	72,87
740,035	19,63
740,216	19,63
740,398	21,67
740,58	46,25
740,761	17,58
740,943	29,87
741,124	7,34
741,306	74,92
741,487	87,21
741,669	44,2
741,85	40,11
742,032	21,67
742,213	3,24
742,394	74,92
742,576	-27,48
742,757	-2,9
742,939	42,15
743,12	76,97
743,301	44,2
743,483	7,34
743,664	42,15
743,845	-15,19
744,027	3,24
744,208	-11,09
744,389	29,87
744,57	81,07
744,752	7,34
744,933	91,31
745,114	17,58
745,295	-19,29
745,476	79,02
745,657	27,82
745,839	19,63
746,02	29,87
746,201	64,68
746,382	68,78
746,563	-33,62
746,744	-56,15
746,925	48,3
747,106	9,39
747,287	46,25
747,468	1,19
747,649	177,32
747,83	212,14
748,011	406,69
748,192	787,61
748,373	1031,32
748,554	1193,11
748,735	1162,39
748,915	1197,21
749,096	1219,74
749,277	1289,37
749,458	1492,12
749,639	1498,26
749,82	1490,07
750	1221,78
750,181	916,64
750,362	674,98
750,543	642,21
750,723	390,31
750,904	251,05
751,085	146,6
751,265	238,76
751,446	134,31
751,627	21,67
751,807	44,2
751,988	42,15
752,169	19,63
752,349	66,73
752,53	-2,9
752,71	5,29
752,891	38,06
753,071	13,48
753,252	25,77
753,432	58,54
753,613	9,39
753,793	9,39
753,974	25,77
754,154	-19,29
754,334	44,2
754,515	48,3
754,695	17,58
754,876	40,11
755,056	29,87
755,236	64,68
755,417	54,44
755,597	25,77
755,777	17,58
755,957	1,19
756,138	5,29
756,318	-25,43
756,498	29,87
756,678	-25,43
756,859	-19,29
757,039	5,29
757,219	-23,38
757,399	-9,05
757,579	9,39
757,759	36,01
757,939	21,67
758,119	52,39
758,3	9,39
758,48	27,82
758,66	-66,39
758,84	27,82
759,02	11,43
759,2	-15,19
759,38	-11,09
759,56	25,77
759,74	33,96
759,919	36,01
760,099	89,26
760,279	58,54
760,459	148,65
760,639	81,07
760,819	484,52
760,999	1522,84
761,178	3396,73
761,358	5061,73
761,538	6351,95
761,718	6896,71
761,898	6962,24
762,077	6040,65
762,257	4203,63
762,437	3253,37
762,616	2581,64
762,796	1854,61
762,976	1352,85
763,155	1004,7
763,335	631,97
763,515	373,92
763,694	310,44
763,874	455,84
764,053	980,12
764,233	1676,43
764,413	2178,19
764,592	2561,16
764,772	2710,66
764,951	2555,01
765,131	2006,16
765,31	1340,57
765,489	1023,13
765,669	842,91
765,848	640,16
766,028	478,37
766,207	300,2
766,386	175,27
766,566	128,17
766,745	74,92
766,924	27,82
767,104	158,89
767,283	251,05
767,462	611,49
767,642	933,02
767,821	1256,6
768	1432,72
768,179	1424,53
768,358	1406,1
768,538	1121,43
768,717	760,99
768,896	603,3
769,075	423,08
769,254	353,45
769,433	318,63
769,612	171,18
769,791	339,11
769,97	730,27
770,149	1463,44
770,328	1836,17
770,507	2149,51
770,686	2358,41
770,865	2249,86
771,044	1637,52
771,223	1193,11
771,402	916,64
771,581	760,99
771,76	507,04
771,939	269,48
772,118	234,66
772,297	175,27
772,475	81,07
772,654	9,39
772,833	136,36
773,012	48,3
773,191	33,96
773,369	27,82
773,548	83,11
773,727	-68,44
773,906	52,39
774,084	15,53
774,263	46,25
774,442	40,11
774,62	33,96
774,799	40,11
774,977	36,01
775,156	-2,9
775,335	7,34
775,513	25,77
775,692	9,39
775,87	33,96
776,049	64,68
776,227	-39,76
776,406	91,31
776,584	66,73
776,763	68,78
776,941	36,01
777,119	11,43
777,298	-27,48
777,476	44,2
777,655	15,53
777,833	3,24
778,011	46,25
778,19	46,25
778,368	1,19
778,546	44,2
778,725	-43,86
778,903	79,02
779,081	-25,43
779,259	-35,67
779,437	-2,9
779,616	44,2
779,794	72,87
779,972	-13,14
780,15	19,63
780,328	44,2
780,506	17,58
780,685	-11,09
780,863	13,48
781,041	-50
781,219	25,77
781,397	-9,05
781,575	7,34
781,753	40,11
781,931	-15,19
782,109	13,48
782,287	-47,96
782,465	81,07
782,643	9,39
782,82	-19,29
782,998	15,53
783,176	64,68
783,354	-39,76
783,532	52,39
783,71	11,43
783,888	99,5
784,065	13,48
784,243	9,39
784,421	-11,09
784,599	72,87
784,776	42,15
784,954	52,39
785,132	7,34
785,31	31,91
785,487	-11,09
785,665	36,01
785,842	50,35
786,02	13,48
786,198	-50
786,375	46,25
786,553	25,77
786,73	-11,09
786,908	29,87
787,085	-17,24
787,263	54,44
787,44	50,35
787,618	-54,1
787,795	-41,81
787,973	44,2
788,15	9,39
788,328	15,53
788,505	15,53
788,682	-15,19
788,86	-25,43
789,037	58,54
789,215	27,82
789,392	-19,29
789,569	15,53
789,746	68,78
789,924	17,58
790,101	46,25
790,278	-29,52
790,455	-11,09
790,633	31,91
790,81	58,54
790,987	50,35
791,164	17,58
791,341	56,49
791,518	44,2
791,695	-66,39
791,873	62,63
792,05	56,49
792,227	132,26
792,404	406,69
792,581	812,19
792,758	935,07
792,935	1119,39
793,112	1242,26
793,289	1100,95
793,466	756,9
793,643	461,99
793,82	330,92
793,996	210,09
794,173	173,22
794,35	99,5
794,527	79,02
794,704	93,35
794,881	54,44
795,057	17,58
795,234	85,16
795,411	36,01
795,588	13,48
795,765	40,11
795,941	5,29
796,118	-15,19
796,295	56,49
796,471	46,25
796,648	19,63
796,825	21,67
797,001	50,35
797,178	40,11
797,354	29,87
797,531	62,63
797,708	54,44
797,884	85,16
798,061	152,74
798,237	314,53
798,414	464,04
798,59	709,79
798,767	730,27
798,943	990,36
799,119	1270,94
799,296	1359
799,472	1426,58
799,649	1420,44
799,825	1363,09
800,001	1062,04
800,178	672,93
800,354	504,99
800,53	355,49
800,707	208,04
800,883	132,26
801,059	58,54
801,235	44,2
801,411	56,49
801,588	103,59
801,764	76,97
801,94	29,87
802,116	23,72
802,292	19,63
802,468	42,15
802,645	58,54
802,821	48,3
802,997	50,35
803,173	-23,38
803,349	87,21
803,525	-19,29
803,701	33,96
803,877	13,48
804,053	11,43
804,229	27,82
804,405	56,49
804,581	46,25
804,756	89,26
804,932	-25,43
805,108	31,91
805,284	-19,29
805,46	81,07
805,636	11,43
805,812	33,96
805,987	58,54
806,163	58,54
806,339	111,78
806,515	66,73
806,69	17,58
806,866	66,73
807,042	19,63
807,217	11,43
807,393	15,53
807,569	81,07
807,744	238,76
807,92	605,35
808,096	943,26
808,271	1340,57
808,447	1584,27
808,622	1588,37
808,798	1633,43
808,973	1877,13
809,149	2753,66
809,324	3773,55
809,5	4525,16
809,675	4850,78
809,851	4600,93
810,026	3644,53
810,201	2348,17
810,377	1350,81
810,552	922,78
810,728	683,17
810,903	459,94
811,078	373,92
811,253	267,43
811,429	292,01
811,604	142,5
811,779	107,69
811,955	171,18
812,13	134,31
812,305	66,73
812,48	62,63
812,655	13,48
812,83	52,39
813,006	60,59
813,181	36,01
813,356	44,2
813,531	68,78
813,706	23,72
813,881	7,34
814,056	50,35
814,231	74,92
814,406	-2,9
814,581	38,06
814,756	83,11
814,931	9,39
815,106	109,74
815,281	165,03
815,456	275,62
815,631	765,09
815,805	2174,09
815,98	4306,02
816,155	5993,55
816,33	6997,06
816,505	7457,85
816,68	7232,57
816,854	7285,82
817,029	8066,1
817,204	10511,37
817,379	12127,22
817,553	12866,53
817,728	12506,09
817,903	10744,84
818,077	7615,54
818,252	4617,32
818,427	2993,28
818,601	2167,95
818,776	1494,16
818,95	1201,3
819,125	863,39
819,299	679,07
819,474	488,61
819,648	429,22
819,823	263,33
819,997	240,81
820,172	158,89
820,346	140,46
820,521	158,89
820,695	68,78
820,87	111,78
821,044	56,49
821,218	58,54
821,393	95,4
821,567	-31,57
821,741	15,53
821,916	54,44
822,09	72,87
822,264	44,2
822,438	27,82
822,613	105,64
822,787	31,91
822,961	74,92
823,135	-2,9
823,309	40,11
823,483	-19,29
823,658	66,73
823,832	249
824,006	384,16
824,18	502,95
824,354	705,7
824,528	691,36
824,702	703,65
824,876	640,16
825,05	386,21
825,224	267,43
825,398	224,42
825,572	177,32
825,746	83,11
825,92	117,93
826,093	89,26
826,267	76,97
826,441	21,67
826,615	56,49
826,789	58,54
826,963	44,2
827,136	44,2
827,31	36,01
827,484	83,11
827,658	-11,09
827,831	-0,85
828,005	5,29
828,179	-25,43
828,353	70,83
828,526	-11,09
828,7	62,63
828,873	7,34
829,047	36,01
829,221	62,63
829,394	48,3
829,568	76,97
829,741	56,49
829,915	66,73
830,088	29,87
830,262	107,69
830,435	50,35
830,609	52,39
830,782	25,77
830,956	-9,05
831,129	46,25
831,302	11,43
831,476	52,39
831,649	23,72
831,822	-31,57
831,996	-7
832,169	27,82
832,342	85,16
832,516	-9,05
832,689	-7
832,862	15,53
833,035	36,01
833,209	50,35
833,382	103,59
833,555	-2,9
833,728	48,3
833,901	56,49
834,074	72,87
834,247	29,87
834,42	21,67
834,594	29,87
834,767	21,67
834,94	23,72
835,113	21,67
835,286	9,39
835,459	48,3
835,632	29,87
835,805	-4,95
835,977	1,19
836,15	-13,14
836,323	-25,43
836,496	64,68
836,669	-27,48
836,842	13,48
837,015	58,54
837,188	62,63
837,36	46,25
837,533	21,67
837,706	38,06
837,879	3,24
838,051	122,02
838,224	222,38
838,397	384,16
838,569	597,15
838,742	746,66
838,915	820,38
839,087	652,45
839,26	668,83
839,433	539,81
839,605	414,88
839,778	435,36
839,95	576,67
840,123	773,28
840,295	945,31
840,468	1168,54
840,64	1086,62
840,813	996,51
840,985	922,78
841,158	609,44
841,33	439,46
841,502	332,97
841,675	269,48
841,847	183,46
842,019	74,92
842,192	201,9
842,364	68,78
842,536	36,01
842,709	85,16
842,881	62,63
843,053	40,11
843,225	40,11
843,398	3,24
843,57	42,15
843,742	44,2
843,914	31,91
844,086	87,21
844,258	-13,14
844,43	25,77
844,602	5,29
844,775	-35,67
844,947	58,54
845,119	17,58
845,291	9,39
845,463	19,63
845,635	27,82
845,807	48,3
845,979	58,54
846,15	25,77
846,322	5,29
846,494	29,87
846,666	21,67
846,838	9,39
847,01	19,63
847,182	3,24
847,354	25,77
847,525	-13,14
847,697	-23,38
847,869	50,35
848,041	13,48
848,212	99,5
848,384	29,87
848,556	60,59
848,727	48,3
848,899	27,82
849,071	-33,62
849,242	23,72
849,414	-2,9
849,585	36,01
849,757	134,31
849,929	173,22
850,1	208,04
850,272	232,62
850,443	220,33
850,615	216,23
850,786	169,13
850,958	87,21
851,129	160,94
851,3	107,69
851,472	79,02
851,643	19,63
851,815	132,26
851,986	-13,14
852,157	-2,9
852,329	48,3
852,5	-35,67
852,671	58,54
852,842	5,29
853,014	76,97
853,185	9,39
853,356	46,25
853,527	46,25
853,698	58,54
853,87	27,82
854,041	54,44
854,212	-27,48
854,383	-41,81
854,554	15,53
854,725	81,07
854,896	-25,43
855,067	29,87
855,238	113,83
855,409	46,25
855,58	19,63
855,751	33,96
855,922	3,24
856,093	38,06
856,264	-2,9
856,435	23,72
856,606	-2,9
856,777	56,49
856,948	-4,95
857,118	15,53
857,289	19,63
857,46	13,48
857,631	19,63
857,802	38,06
857,972	7,34
858,143	64,68
858,314	-2,9
858,484	91,31
858,655	-56,15
858,826	109,74
858,996	36,01
859,167	5,29
859,338	52,39
859,508	109,74
859,679	87,21
859,849	-33,62
860,02	-15,19
860,19	7,34
860,361	38,06
860,531	40,11
860,702	62,63
860,872	1,19
861,043	-17,24
861,213	44,2
861,384	-35,67
861,554	25,77
861,724	40,11
861,895	50,35
862,065	11,43
862,235	33,96
862,406	21,67
862,576	-7
862,746	25,77
862,916	-45,91
863,087	17,58
863,257	11,43
863,427	-35,67
863,597	44,2
863,767	50,35
863,937	42,15
864,108	50,35
864,278	38,06
864,448	17,58
864,618	58,54
864,788	36,01
864,958	42,15
865,128	79,02
865,298	42,15
865,468	50,35
865,638	48,3
865,808	68,78
865,978	36,01
866,148	21,67
866,318	-25,43
866,487	5,29
866,657	-39,76
866,827	-4,95
866,997	-25,43
867,167	33,96
867,337	-7
867,506	23,72
867,676	11,43
867,846	29,87
868,016	42,15
868,185	-19,29
868,355	1,19
868,525	-31,57
868,694	-2,9
868,864	-9,05
869,034	29,87
869,203	33,96
869,373	9,39
869,542	23,72
869,712	-13,14
869,881	5,29
870,051	-21,33
870,22	11,43
870,39	11,43
870,559	66,73
870,729	-62,29
870,898	-7
871,068	-7
871,237	70,83
871,406	27,82
871,576	-2,9
871,745	-58,2
871,914	23,72
872,084	31,91
872,253	-70,48
872,422	-9,05
872,591	79,02
872,761	-41,81
872,93	62,63
873,099	-21,33
873,268	13,48
873,437	52,39
873,607	-37,72
873,776	33,96
873,945	58,54
874,114	38,06
874,283	3,24
874,452	33,96
874,621	-37,72
874,79	3,24
874,959	25,77
875,128	68,78
875,297	-37,72
875,466	44,2
875,635	3,24
875,804	-23,38
875,973	-35,67
876,142	33,96
876,31	15,53
876,479	13,48
876,648	11,43
876,817	9,39
876,986	-4,95
877,155	29,87
877,323	15,53
877,492	-35,67
877,661	29,87
877,829	7,34
877,998	-11,09
878,167	9,39
878,335	21,67
878,504	-50
878,673	50,35
878,841	52,39
879,01	46,25
879,178	-7
879,347	44,2
879,515	3,24
879,684	3,24
879,852	36,01
880,021	-13,14
880,189	56,49
880,358	33,96
880,526	107,69
880,695	21,67
880,863	19,63
881,031	33,96
881,2	91,31
881,368	11,43
881,536	21,67
881,705	72,87
881,873	23,72
882,041	11,43
882,21	44,2
882,378	42,15
882,546	-19,29
882,714	-7
882,882	-11,09
883,05	-11,09
883,219	76,97
883,387	-39,76
883,555	-54,1
883,723	50,35
883,891	-76,63
884,059	-47,96
884,227	-19,29
884,395	13,48
884,563	11,43
884,731	-31,57
884,899	7,34
885,067	38,06
885,235	44,2
885,403	-13,14
885,571	27,82
885,739	-21,33
