Data from USB4F035431__4__14-01-27-391.txt Node

Date: Wed Feb 12 14:01:27 CET 2025
User: Versuch 234
Spectrometer: USB4F03543
Trigger mode: 4
Integration Time (sec): 1,000000E-1
Scans to average: 1
Electric dark correction enabled: true
Nonlinearity correction enabled: false
Boxcar width: 0
XAxis mode: Wavelengths
Number of Pixels in Spectrum: 3648
>>>>>Begin Spectral Data<<<<<
179,969	-131,07
180,181	-131,07
180,394	-131,07
180,606	-63,49
180,819	-186,37
181,031	-14,34
181,243	45,06
181,456	-71,68
181,668	51,2
181,88	-16,38
182,093	-14,34
182,305	-4,1
182,518	57,34
182,73	36,86
182,942	-12,29
183,155	-4,1
183,367	-53,25
183,579	14,34
183,791	94,21
184,004	20,48
184,216	-2,05
184,428	69,63
184,641	2,05
184,853	2,05
185,065	16,38
185,277	59,39
185,49	-6,14
185,702	-26,62
185,914	-10,24
186,126	45,06
186,338	112,64
186,551	112,64
186,763	18,43
186,975	12,29
187,187	49,15
187,399	8,19
187,612	20,48
187,824	2,05
188,036	10,24
188,248	65,54
188,46	36,86
188,672	-2,05
188,885	20,48
189,097	102,4
189,309	-28,67
189,521	-4,1
189,733	110,59
189,945	24,58
190,157	49,15
190,369	2,05
190,581	53,25
190,794	135,17
191,006	16,38
191,218	10,24
191,43	28,67
191,642	-55,3
191,854	36,86
192,066	159,74
192,278	81,92
192,49	-40,96
192,702	-38,91
192,914	28,67
193,126	36,86
193,338	53,25
193,55	71,68
193,762	65,54
193,974	-4,1
194,186	4,1
194,398	-14,34
194,61	53,25
194,822	81,92
195,034	47,1
195,246	75,77
195,457	20,48
195,669	122,88
195,881	-2,05
196,093	36,86
196,305	20,48
196,517	-4,1
196,729	43,01
196,941	-16,38
197,153	53,25
197,365	124,93
197,576	-10,24
197,788	16,38
198	59,39
198,212	135,17
198,424	126,97
198,636	53,25
198,847	79,87
199,059	20,48
199,271	-32,77
199,483	69,63
199,695	59,39
199,906	110,59
200,118	-75,77
200,33	137,21
200,542	356,35
200,753	51,2
200,965	96,25
201,177	12,29
201,389	32,77
201,6	26,62
201,812	57,34
202,024	61,44
202,235	-28,67
202,447	57,34
202,659	96,25
202,871	83,97
203,082	-8,19
203,294	-16,38
203,506	49,15
203,717	86,01
203,929	92,16
204,141	28,67
204,352	32,77
204,564	45,06
204,775	-30,72
204,987	12,29
205,199	110,59
205,41	2,05
205,622	86,01
205,833	12,29
206,045	36,86
206,257	20,48
206,468	-14,34
206,68	-12,29
206,891	14,34
207,103	24,58
207,314	40,96
207,526	55,3
207,737	-4,1
207,949	100,35
208,16	36,86
208,372	61,44
208,583	61,44
208,795	28,67
209,006	8,19
209,218	20,48
209,429	-16,38
209,641	24,58
209,852	86,01
210,064	32,77
210,275	-12,29
210,487	45,06
210,698	34,82
210,909	26,62
211,121	69,63
211,332	-10,24
211,544	51,2
211,755	51,2
211,966	53,25
212,178	26,62
212,389	110,59
212,6	-16,38
212,812	73,73
213,023	20,48
213,234	0
213,446	36,86
213,657	-6,14
213,868	94,21
214,08	110,59
214,291	34,82
214,502	-8,19
214,714	-24,58
214,925	24,58
215,136	-12,29
215,347	36,86
215,559	24,58
215,77	-20,48
215,981	112,64
216,192	4,1
216,404	26,62
216,615	51,2
216,826	98,3
217,037	-24,58
217,249	30,72
217,46	100,35
217,671	24,58
217,882	67,58
218,093	26,62
218,304	67,58
218,516	73,73
218,727	-14,34
218,938	51,2
219,149	147,45
219,36	92,16
219,571	-8,19
219,782	10,24
219,993	57,34
220,205	-32,77
220,416	98,3
220,627	-22,53
220,838	86,01
221,049	112,64
221,26	53,25
221,471	57,34
221,682	57,34
221,893	86,01
222,104	40,96
222,315	-18,43
222,526	18,43
222,737	53,25
222,948	-6,14
223,159	22,53
223,37	71,68
223,581	20,48
223,792	30,72
224,003	61,44
224,214	-32,77
224,425	94,21
224,636	-36,86
224,847	143,36
225,058	12,29
225,269	98,3
225,48	86,01
225,691	-55,3
225,902	65,54
226,112	12,29
226,323	2,05
226,534	-4,1
226,745	45,06
226,956	26,62
227,167	-12,29
227,378	24,58
227,589	51,2
227,799	122,88
228,01	61,44
228,221	-24,58
228,432	26,62
228,643	36,86
228,853	-36,86
229,064	-6,14
229,275	18,43
229,486	-28,67
229,697	28,67
229,907	10,24
230,118	83,97
230,329	-34,82
230,54	69,63
230,75	-20,48
230,961	122,88
231,172	32,77
231,383	-2,05
231,593	18,43
231,804	102,4
232,015	-6,14
232,225	67,58
232,436	-14,34
232,647	100,35
232,857	51,2
233,068	10,24
233,279	75,77
233,489	-24,58
233,7	86,01
233,91	2,05
234,121	51,2
234,332	-6,14
234,542	73,73
234,753	4,1
234,964	26,62
235,174	-32,77
235,385	61,44
235,595	43,01
235,806	131,07
236,016	28,67
236,227	57,34
236,437	55,3
236,648	65,54
236,858	90,11
237,069	4,1
237,279	53,25
237,49	12,29
237,7	45,06
237,911	59,39
238,121	10,24
238,332	24,58
238,542	55,3
238,753	43,01
238,963	-16,38
239,174	18,43
239,384	116,73
239,595	36,86
239,805	-6,14
240,015	69,63
240,226	69,63
240,436	4,1
240,647	43,01
240,857	32,77
241,067	-4,1
241,278	155,65
241,488	30,72
241,698	40,96
241,909	61,44
242,119	55,3
242,329	88,06
242,54	90,11
242,75	12,29
242,96	22,53
243,171	26,62
243,381	98,3
243,591	-63,49
243,801	12,29
244,012	102,4
244,222	6,14
244,432	-53,25
244,642	-20,48
244,853	40,96
245,063	24,58
245,273	53,25
245,483	8,19
245,694	4,1
245,904	94,21
246,114	61,44
246,324	32,77
246,534	45,06
246,744	-4,1
246,955	-16,38
247,165	73,73
247,375	151,55
247,585	16,38
247,795	45,06
248,005	40,96
248,215	100,35
248,425	61,44
248,636	180,22
248,846	65,54
249,056	12,29
249,266	12,29
249,476	59,39
249,686	59,39
249,896	57,34
250,106	61,44
250,316	67,58
250,526	133,12
250,736	18,43
250,946	151,55
251,156	67,58
251,366	8,19
251,576	165,89
251,786	73,73
251,996	24,58
252,206	30,72
252,416	18,43
252,626	2,05
252,836	-2,05
253,046	47,1
253,256	110,59
253,466	45,06
253,676	55,3
253,885	102,4
254,095	69,63
254,305	90,11
254,515	75,77
254,725	36,86
254,935	45,06
255,145	10,24
255,355	24,58
255,564	40,96
255,774	0
255,984	124,93
256,194	34,82
256,404	49,15
256,614	69,63
256,823	102,4
257,033	-4,1
257,243	67,58
257,453	98,3
257,662	36,86
257,872	40,96
258,082	40,96
258,292	-71,68
258,501	116,73
258,711	155,65
258,921	61,44
259,131	4,1
259,34	16,38
259,55	141,31
259,76	-8,19
259,969	65,54
260,179	45,06
260,389	90,11
260,598	86,01
260,808	26,62
261,018	73,73
261,227	94,21
261,437	-30,72
261,647	61,44
261,856	71,68
262,066	43,01
262,275	100,35
262,485	-4,1
262,694	71,68
262,904	24,58
263,114	59,39
263,323	38,91
263,533	0
263,742	51,2
263,952	24,58
264,161	14,34
264,371	8,19
264,58	100,35
264,79	112,64
264,999	24,58
265,209	65,54
265,418	55,3
265,628	28,67
265,837	51,2
266,047	47,1
266,256	57,34
266,466	22,53
266,675	75,77
266,884	106,49
267,094	67,58
267,303	86,01
267,513	69,63
267,722	86,01
267,931	34,82
268,141	61,44
268,35	28,67
268,559	90,11
268,769	12,29
268,978	-8,19
269,187	59,39
269,397	83,97
269,606	-24,58
269,815	12,29
270,025	0
270,234	55,3
270,443	34,82
270,653	69,63
270,862	79,87
271,071	116,73
271,28	57,34
271,49	110,59
271,699	-12,29
271,908	67,58
272,117	71,68
272,327	22,53
272,536	83,97
272,745	69,63
272,954	20,48
273,163	83,97
273,372	100,35
273,582	32,77
273,791	86,01
274	53,25
274,209	53,25
274,418	106,49
274,627	178,17
274,836	81,92
275,046	81,92
275,255	86,01
275,464	24,58
275,673	81,92
275,882	16,38
276,091	57,34
276,3	100,35
276,509	59,39
276,718	34,82
276,927	71,68
277,136	26,62
277,345	-12,29
277,554	94,21
277,763	92,16
277,972	30,72
278,181	79,87
278,39	2,05
278,599	34,82
278,808	106,49
279,017	114,69
279,226	16,38
279,435	38,91
279,644	110,59
279,853	122,88
280,062	139,26
280,271	28,67
280,48	116,73
280,688	69,63
280,897	114,69
281,106	20,48
281,315	57,34
281,524	94,21
281,733	36,86
281,942	86,01
282,151	45,06
282,359	65,54
282,568	24,58
282,777	55,3
282,986	102,4
283,195	145,41
283,403	90,11
283,612	45,06
283,821	12,29
284,03	24,58
284,238	53,25
284,447	69,63
284,656	49,15
284,865	65,54
285,073	83,97
285,282	102,4
285,491	51,2
285,699	10,24
285,908	24,58
286,117	120,83
286,325	69,63
286,534	102,4
286,743	86,01
286,951	-14,34
287,16	122,88
287,369	96,25
287,577	75,77
287,786	75,77
287,995	20,48
288,203	122,88
288,412	94,21
288,62	34,82
288,829	118,78
289,037	45,06
289,246	45,06
289,455	14,34
289,663	49,15
289,872	81,92
290,08	81,92
290,289	94,21
290,497	-36,86
290,706	-30,72
290,914	0
291,123	61,44
291,331	14,34
291,54	149,5
291,748	135,17
291,957	53,25
292,165	100,35
292,373	2,05
292,582	69,63
292,79	94,21
292,999	122,88
293,207	145,41
293,415	20,48
293,624	0
293,832	10,24
294,041	108,54
294,249	8,19
294,457	28,67
294,666	77,82
294,874	20,48
295,082	90,11
295,291	90,11
295,499	-36,86
295,707	69,63
295,915	81,92
296,124	90,11
296,332	59,39
296,54	69,63
296,749	38,91
296,957	75,77
297,165	-20,48
297,373	71,68
297,581	102,4
297,79	51,2
297,998	47,1
298,206	73,73
298,414	-10,24
298,622	40,96
298,831	98,3
299,039	75,77
299,247	122,88
299,455	77,82
299,663	69,63
299,871	69,63
300,08	67,58
300,288	90,11
300,496	102,4
300,704	102,4
300,912	69,63
301,12	69,63
301,328	83,97
301,536	120,83
301,744	63,49
301,952	149,5
302,16	69,63
302,368	110,59
302,576	77,82
302,784	102,4
302,992	26,62
303,2	73,73
303,408	106,49
303,616	26,62
303,824	129,02
304,032	165,89
304,24	172,03
304,448	149,5
304,656	110,59
304,864	233,47
305,072	124,93
305,28	155,65
305,488	165,89
305,696	98,3
305,904	180,22
306,111	102,4
306,319	161,79
306,527	192,51
306,735	172,03
306,943	270,33
307,151	176,13
307,359	247,8
307,566	305,15
307,774	276,48
307,982	217,08
308,19	241,66
308,398	229,37
308,605	249,85
308,813	262,14
309,021	270,33
309,229	346,11
309,436	241,66
309,644	411,64
309,852	421,88
310,06	436,22
310,267	446,46
310,475	442,36
310,683	503,8
310,89	552,95
311,098	559,1
311,306	493,56
311,513	608,25
311,721	532,47
311,929	663,54
312,136	634,87
312,344	700,41
312,552	708,6
312,759	602,1
312,967	802,8
313,174	937,97
313,382	892,91
313,589	878,58
313,797	956,4
314,005	923,63
314,212	1118,19
314,42	837,62
314,627	962,55
314,835	958,45
315,042	1073,14
315,25	1075,18
315,457	1032,18
315,665	1034,22
315,872	1232,88
316,08	1310,7
316,287	1245,16
316,495	1697,77
316,702	1499,11
316,909	1531,88
317,117	1615,85
317,324	1632,23
317,532	1679,33
317,739	1660,9
317,946	1630,18
318,154	1675,24
318,361	1642,47
318,569	1822,69
318,776	1839,08
318,983	1826,79
319,191	1929,19
319,398	1912,8
319,605	2047,97
319,813	2099,17
320,02	2211,81
320,227	2383,84
320,434	2332,64
320,642	2580,44
320,849	2408,41
321,056	2357,21
321,264	2453,47
321,471	2439,13
321,678	2551,77
321,885	2473,95
322,092	2535,39
322,3	2445,27
322,507	2461,66
322,714	2430,94
322,921	2445,27
323,128	2598,87
323,336	2752,47
323,543	2916,31
323,75	2813,91
323,957	2805,72
324,164	3262,41
324,371	3205,07
324,578	3291,09
324,786	3272,65
324,993	3614,66
325,2	3694,54
325,407	3837,89
325,614	3829,7
325,821	4263,87
326,028	4378,56
326,235	4497,34
326,442	4530,11
326,649	4466,62
326,856	4425,66
327,063	4630,46
327,27	4157,38
327,477	4255,68
327,684	4194,24
327,891	4267,97
328,098	4356,03
328,305	4560,83
328,512	4370,37
328,719	4913,08
328,926	5156,79
329,133	5296,05
329,34	5427,12
329,546	5517,23
329,753	5373,87
329,96	5310,38
330,167	4968,37
330,374	4966,32
330,581	5029,81
330,788	4892,6
330,995	4960,18
331,201	5009,33
331,408	4693,94
331,615	5105,59
331,822	4886,45
332,029	4968,37
332,235	5214,13
332,442	5189,55
332,649	5115,83
332,856	5044,15
333,062	4917,17
333,269	5124,02
333,476	4923,32
333,683	4980,66
333,889	5050,29
334,096	5285,81
334,303	5119,92
334,509	5435,31
334,716	5337,01
334,923	5431,21
335,129	5314,48
335,336	5320,62
335,543	4958,13
335,749	5064,63
335,956	4804,53
336,163	4698,04
336,369	4720,57
336,576	4796,34
336,782	4675,51
336,989	4853,69
337,196	4861,88
337,402	5142,45
337,609	5128,11
337,815	5281,71
338,022	5474,22
338,228	5466,03
338,435	5631,91
338,641	5717,93
338,848	5582,76
339,054	5820,33
339,261	5793,7
339,467	5842,85
339,674	6018,98
339,88	6049,7
340,087	6004,64
340,293	5996,45
340,5	6025,12
340,706	5762,98
340,912	5719,98
341,119	6025,12
341,325	5902,25
341,532	5955,49
341,738	6000,55
341,944	6205,35
342,151	6184,87
342,357	6107,04
342,563	6211,49
342,77	6178,72
342,976	5967,78
343,182	6049,7
343,389	5558,19
343,595	5361,58
343,801	5179,31
344,007	5205,94
344,214	5242,8
344,42	5437,36
344,626	5621,67
344,832	5799,85
345,039	5711,78
345,245	5910,44
345,451	5775,27
345,657	6021,03
345,864	5832,61
346,07	6055,84
346,276	5965,73
346,482	6264,74
346,688	5949,35
346,894	5758,89
347,1	5857,19
347,307	6057,89
347,513	5928,87
347,719	6111,14
347,925	5949,35
348,131	6029,22
348,337	5980,07
348,543	6051,75
348,749	5838,76
348,955	6197,15
349,161	6027,17
349,367	6301,6
349,573	6614,94
349,779	6561,69
349,985	6729,63
350,191	6858,65
350,397	6694,81
350,603	6911,89
350,809	6610,84
351,015	6895,51
351,221	6481,82
351,427	6735,77
351,633	6588,32
351,839	6436,77
352,045	6602,65
352,251	6393,76
352,457	6422,43
352,663	6680,47
352,869	6729,63
353,075	7053,2
353,28	7040,92
353,486	7622,54
353,692	7333,78
353,898	7589,77
354,104	7505,81
354,31	7528,33
354,515	7489,42
354,721	7651,21
354,927	7305,1
355,133	7401,36
355,339	7212,95
355,544	7192,47
355,75	6612,89
355,956	6868,89
356,162	6246,3
356,367	6164,39
356,573	6066,08
356,779	6018,98
356,984	5783,46
357,19	5658,54
357,396	5541,8
357,602	5642,15
357,807	5214,13
358,013	5445,55
358,218	5511,08
358,424	5758,89
358,63	5908,39
358,835	6633,37
359,041	6705,05
359,247	7186,32
359,452	7196,56
359,658	7233,43
359,863	6973,33
360,069	6885,27
360,274	6991,77
360,48	6870,94
360,685	6647,71
360,891	6643,61
361,097	6543,26
361,302	6836,12
361,508	6850,46
361,713	6901,65
361,918	7069,59
362,124	7106,45
362,329	7528,33
362,535	7499,66
362,74	7319,44
362,946	7554,96
363,151	7602,06
363,357	7505,81
363,562	7729,03
363,767	7679,88
363,973	7751,56
364,178	7626,64
364,383	7661,45
364,589	8294,27
364,794	8290,18
365	8873,85
365,205	9133,94
365,41	9072,5
365,615	9502,57
365,821	9242,48
366,026	9461,62
366,231	9314,16
366,437	9275,25
366,642	9219,96
366,847	9191,28
367,052	9027,45
367,258	9097,08
367,463	8994,68
367,668	8619,9
367,873	8865,66
368,078	8726,39
368,284	9109,36
368,489	8750,97
368,694	9424,75
368,899	9355,12
369,104	9561,97
369,309	9404,27
369,515	9547,63
369,72	9383,79
369,925	9109,36
370,13	9148,28
370,335	9150,32
370,54	8996,73
370,745	9244,53
370,95	8912,76
371,155	8988,53
371,36	8851,32
371,565	8918,9
371,77	8576,89
371,975	8482,69
372,18	8339,33
372,385	8079,24
372,59	7597,96
372,795	7333,78
373	7397,26
373,205	7286,67
373,41	7290,77
373,615	7487,37
373,82	6913,94
374,025	7190,42
374,23	7151,51
374,435	7499,66
374,64	7544,72
374,845	7989,13
375,05	8286,08
375,254	8200,07
375,459	8333,18
375,664	8441,73
375,869	8159,11
376,074	8746,87
376,279	8693,63
376,483	8892,28
376,688	9088,89
376,893	9428,85
377,098	9877,35
377,303	9803,63
377,507	10078,05
377,712	10354,53
377,917	9994,09
378,122	9811,82
378,326	9232,24
378,531	8953,72
378,736	8791,93
378,94	8589,18
379,145	8423,3
379,35	8515,45
379,554	8734,59
379,759	9015,16
379,964	8806,27
380,168	9056,12
380,373	8734,59
380,578	8873,85
380,782	8515,45
380,987	8103,81
381,191	7694,22
381,396	7378,83
381,601	7208,85
381,805	6872,98
382,01	6055,84
382,214	6023,08
382,419	5666,73
382,623	5509,04
382,828	5582,76
383,032	5689,26
383,237	5762,98
383,441	6137,76
383,646	6432,67
383,85	6969,24
384,055	7262,1
384,259	7628,68
384,464	7823,24
384,668	7612,3
384,872	7331,73
385,077	7647,12
385,281	7507,85
385,486	7563,15
385,69	7679,88
385,894	7954,31
386,099	7634,83
386,303	7741,32
386,507	7765,9
386,712	7720,84
386,916	7714,7
387,12	7524,24
387,325	7755,66
387,529	7634,83
387,733	7477,13
387,937	7905,16
388,142	7659,4
388,346	8251,27
388,55	8167,3
388,754	8832,89
388,959	8685,44
389,163	9107,32
389,367	9428,85
389,571	9391,98
389,775	9267,06
389,98	9815,91
390,184	9604,97
390,388	10354,53
390,592	9914,22
390,796	10030,95
391	9856,87
391,204	9678,7
391,409	9322,35
391,613	8986,49
391,817	8365,95
392,021	7759,75
392,225	6920,09
392,429	6066,08
392,633	5670,83
392,837	5574,57
393,041	5533,61
393,245	6143,91
393,449	6444,96
393,653	7085,97
393,857	7516,05
394,061	8593,28
394,265	8791,93
394,469	9523,05
394,673	9486,19
394,877	9629,55
395,081	9883,5
395,285	9125,75
395,489	8122,24
395,693	7913,35
395,896	7178,13
396,1	6619,03
396,304	6901,65
396,508	6926,23
396,712	7081,88
396,916	7858,06
397,12	9013,11
397,323	9785,19
397,527	10465,12
397,731	11380,56
397,935	11214,68
398,139	12076,87
398,342	12672,83
398,546	12398,4
398,75	12742,46
398,954	13315,89
399,157	12732,22
399,361	12920,63
399,565	12996,41
399,769	13270,84
399,972	13418,29
400,176	13831,98
400,38	13545,27
400,583	13872,94
400,787	14282,53
400,991	14020,39
401,194	13745,97
401,398	14458,66
401,601	14018,35
401,805	13975,34
402,009	14587,68
402,212	13764,4
402,416	14331,69
402,619	13965,1
402,823	13879,08
403,026	13860,65
403,23	13512,5
403,433	13995,82
403,637	13414,2
403,841	13717,29
404,044	13719,34
404,247	14223,14
404,451	13883,18
404,654	13543,22
404,858	13815,6
405,061	13698,86
405,265	13639,47
405,468	13772,59
405,672	13463,35
405,875	12898,11
406,078	13715,25
406,282	13758,25
406,485	13369,14
406,689	14055,21
406,892	14087,98
407,095	13377,33
407,299	13719,34
407,502	13987,63
407,705	14585,63
407,909	14890,78
408,112	14993,18
408,315	15470,36
408,518	15191,83
408,722	14233,38
408,925	14083,88
409,128	14325,54
409,331	14012,2
409,535	13899,56
409,738	14040,87
409,941	14247,72
410,144	13946,67
410,347	15099,67
410,551	14782,24
410,754	15396,63
410,957	15425,3
411,16	15738,64
411,363	15425,3
411,566	15763,22
411,769	15886,09
411,973	15761,17
412,176	15439,64
412,379	16088,84
412,582	15429,4
412,785	15421,2
412,988	15972,11
413,191	15281,94
413,394	14950,17
413,597	15472,4
413,8	15513,36
414,003	15732,5
414,206	15179,54
414,409	16043,79
414,612	15290,13
414,815	15562,51
415,018	15324,95
415,221	15795,98
415,424	15974,16
415,627	15914,77
415,83	15894,29
416,033	15476,5
416,235	16242,44
416,438	15935,24
416,641	15007,51
416,844	15267,61
417,047	15175,45
417,25	14864,16
417,453	15537,94
417,655	15146,78
417,858	15150,87
418,061	15056,67
418,264	14774,05
418,467	15394,58
418,669	15077,15
418,872	15052,57
419,075	15107,87
419,278	14941,98
419,48	15118,11
419,683	15566,61
419,886	15548,18
420,089	16723,71
420,291	15695,63
420,494	16471,81
420,697	15830,8
420,899	15867,66
421,102	14778,14
421,305	15609,62
421,507	15191,83
421,71	15347,48
421,912	15124,25
422,115	15378,2
422,318	14692,13
422,52	15093,53
422,723	15324,95
422,925	15509,27
423,128	15191,83
423,33	14946,08
423,533	14896,92
423,735	15269,65
423,938	15290,13
424,14	15138,58
424,343	14755,61
424,545	15402,77
424,748	15009,56
424,95	14931,74
425,153	15607,57
425,355	15187,74
425,558	16008,97
425,76	15044,38
425,962	14425,89
426,165	14348,07
426,367	15322,9
426,57	15410,96
426,772	14763,81
426,974	15304,47
427,177	14405,41
427,379	14923,55
427,581	14774,05
427,784	15165,21
427,986	13608,75
428,188	14405,41
428,39	14782,24
428,593	13807,41
428,795	14161,7
428,997	13250,36
429,2	12375,88
429,402	12584,77
429,604	12095,3
429,806	11786,06
430,008	12001,1
430,211	12595,01
430,413	13201,21
430,615	13664,05
430,817	14798,62
431,019	15429,4
431,221	15501,08
431,423	14851,87
431,626	15507,22
431,828	15572,75
432,03	15877,9
432,232	15988,49
432,434	16678,66
432,636	16592,64
432,838	15574,8
433,04	15714,06
433,242	15623,95
433,444	15114,01
433,646	15507,22
433,848	15990,54
434,05	16518,92
434,252	16123,66
434,454	16029,45
434,656	16717,57
434,858	17014,52
435,06	17727,22
435,262	17579,76
435,464	18353,9
435,666	18417,38
435,868	17549,04
436,07	18177,77
436,271	18716,39
436,473	17936,11
436,675	17688,31
436,877	17211,13
437,079	16348,93
437,281	16862,97
437,482	16535,3
437,684	16924,41
437,886	16326,41
438,088	16205,58
438,29	16267,02
438,491	16772,86
438,693	16488,2
438,895	17274,62
439,097	18386,66
439,298	17235,7
439,5	17522,42
439,702	17452,79
439,903	17055,48
440,105	18136,81
440,307	18960,09
440,508	18675,43
440,71	19265,24
440,912	18415,33
441,113	18327,27
441,315	18683,62
441,517	19072,73
441,718	19580,63
441,92	19164,89
442,121	18575,08
442,323	19433,18
442,524	19412,7
442,726	19398,36
442,928	19121,88
443,129	19793,62
443,331	18435,81
443,532	19125,98
443,734	19021,53
443,935	19816,15
444,136	18138,86
444,338	19080,92
444,539	18317,03
444,741	18427,62
444,942	17954,54
445,144	18431,72
445,345	18548,45
445,546	19013,34
445,748	18130,67
445,949	18046,7
446,151	18927,33
446,352	19287,77
446,553	19504,85
446,755	18869,98
446,956	19799,76
447,157	19949,26
447,359	19844,82
447,56	19900,11
447,761	19527,38
447,962	19930,83
448,164	19963,6
448,365	18630,37
448,566	19867,34
448,767	19433,18
448,969	20141,77
449,17	20045,52
449,371	19787,47
449,572	20735,68
449,773	20684,48
449,974	21032,64
450,176	20946,62
450,377	21624,5
450,578	20741,83
450,779	19777,23
450,98	19056,35
451,181	19584,73
451,382	19322,59
451,583	19658,45
451,784	19085,02
451,986	20588,23
452,187	18910,94
452,388	19125,98
452,589	18466,53
452,79	20014,8
452,991	18743,01
453,192	19844,82
453,393	19320,54
453,594	20594,37
453,795	19224,28
453,995	19408,6
454,196	19021,53
454,397	19836,63
454,598	19549,91
454,799	20242,12
455	20190,92
455,201	20405,96
455,402	20254,41
455,603	19984,08
455,804	21141,18
456,004	21692,08
456,205	20229,84
456,406	20188,88
456,607	20448,97
456,808	20719,3
457,008	19844,82
457,209	19678,93
457,41	21419,71
457,611	20035,28
457,811	20240,08
458,012	20352,71
458,213	21255,87
458,414	20498,12
458,614	20539,08
458,815	20659,91
459,016	20659,91
459,216	21382,84
459,417	21442,23
459,618	21020,35
459,818	21362,36
460,019	20938,43
460,22	21212,86
460,42	21663,41
460,621	21014,21
460,821	21657,27
461,022	21429,94
461,223	20979,39
461,423	21814,96
461,624	22163,12
461,824	22353,58
462,025	21257,92
462,225	22345,39
462,426	22734,5
462,626	22105,77
462,827	21780,15
463,027	21331,64
463,228	22202,03
463,428	21262,01
463,628	22025,9
463,829	22697,64
464,029	21276,35
464,23	22462,12
464,43	21720,76
464,63	22331,05
464,831	22687,4
465,031	22742,69
465,231	23025,31
465,432	23248,54
465,632	22128,3
465,832	21604,02
466,033	23273,12
466,233	22554,28
466,433	22693,54
466,634	23160,48
466,834	23643,8
467,034	22646,44
467,234	24518,28
467,435	23641,75
467,635	24303,25
467,835	22730,41
468,035	24626,82
468,235	23465,63
468,436	23778,97
468,636	23973,52
468,836	23066,27
469,036	24243,85
469,236	23408,28
469,436	23436,95
469,636	24239,76
469,836	23760,53
470,037	24305,29
470,237	24161,94
470,437	24772,23
470,637	24540,81
470,837	25615,99
471,037	25808,5
471,237	26678,89
471,437	25896,56
471,637	26185,33
471,837	27108,96
472,037	25876,09
472,237	25861,75
472,437	26508,91
472,637	27461,21
472,837	27123,3
473,036	26656,36
473,236	27250,27
473,436	26928,74
473,636	27604,57
473,836	26953,32
474,036	28290,64
474,236	28704,33
474,436	28276,3
474,635	28427,85
474,835	28386,89
475,035	29865,53
475,235	29978,17
475,435	29607,48
475,634	29447,74
475,834	30193,2
476,034	30596,65
476,234	30572,08
476,433	30897,7
476,633	31082,02
476,833	31804,95
477,033	31585,82
477,232	32278,04
477,432	30815,79
477,632	32437,78
477,831	32241,17
478,031	32421,39
478,231	33203,72
478,43	33340,93
478,63	33211,91
478,829	33418,75
479,029	33832,44
479,229	33906,17
479,428	34620,91
479,628	35032,55
479,827	35149,29
480,027	34979,31
480,226	35501,54
480,426	35991
480,625	35294,69
480,825	37508,55
481,024	36668,88
481,224	37645,76
481,423	36511,19
481,623	37397,96
481,822	37313,99
482,021	37991,87
482,221	38708,66
482,42	37563,84
482,62	37846,46
482,819	37754,3
483,018	37799,36
483,218	37791,17
483,417	38596,02
483,616	38401,46
483,816	37813,69
484,015	37907,9
484,214	37529,03
484,414	36713,94
484,613	35266,02
484,812	34829,8
485,011	35100,14
485,211	34493,94
485,41	34950,63
485,609	35562,98
485,808	35309,03
486,008	36617,68
486,207	36554,19
486,406	37207,5
486,605	36953,55
486,804	38018,49
487,003	38706,61
487,203	38827,44
487,402	38673,84
487,601	38647,22
487,8	38952,37
487,999	39794,08
488,198	39751,07
488,397	40576,4
488,596	40631,7
488,795	41319,82
488,994	41944,45
489,193	42040,7
489,392	42276,22
489,591	41858,43
489,79	41774,47
489,989	42022,27
490,188	41547,14
490,387	41647,49
490,586	40775,06
490,785	41387,4
490,984	40506,77
491,183	41233,8
491,382	41014,67
491,581	41678,21
491,779	41901,44
491,978	42255,74
492,177	42139,01
492,376	42724,72
492,575	42870,13
492,774	42308,99
492,972	42423,67
493,171	42851,7
493,37	43072,88
493,569	43531,62
493,768	43464,04
493,966	43617,64
494,165	43390,31
494,364	43543,91
494,563	42595,7
494,761	43470,18
494,96	43083,12
495,159	43765,09
495,357	42712,44
495,556	44037,47
495,755	42911,09
495,953	43904,35
496,152	43320,68
496,35	42945,9
496,549	42800,5
496,748	42605,94
496,946	42214,78
497,145	41921,92
497,343	41807,23
497,542	42143,1
497,74	42220,92
497,939	43005,3
498,137	42769,78
498,336	42450,3
498,534	41495,94
498,733	42196,35
498,931	41610,63
499,13	41538,95
499,328	40703,38
499,527	41340,3
499,725	39998,88
499,924	40322,46
500,122	39486,89
500,32	40234,39
500,519	39990,69
500,717	39931,29
500,915	39806,37
501,114	40021,41
501,312	40125,85
501,51	40236,44
501,709	40252,83
501,907	40263,07
502,105	40121,76
502,304	39972,25
502,502	39120,3
502,7	38886,83
502,898	38915,5
503,097	39435,69
503,295	39009,71
503,493	40207,77
503,691	39701,92
503,889	40332,7
504,088	39959,97
504,286	41270,67
504,484	40433,05
504,682	40988,05
504,88	40942,99
505,078	41250,19
505,276	40736,15
505,474	41014,67
505,672	40201,63
505,871	40273,31
506,069	40918,42
506,267	40471,96
506,465	40273,31
506,663	40154,52
506,861	39835,04
507,059	39957,92
507,257	40312,22
507,455	40836,5
507,653	41407,88
507,851	41164,17
508,049	40781,2
508,246	41014,67
508,444	41139,6
508,642	40940,94
508,84	40641,94
509,038	40643,99
509,236	40945,04
509,434	40695,19
509,632	41121,16
509,829	41667,97
510,027	41348,49
510,225	41620,87
510,423	41780,61
510,621	41303,43
510,818	41424,26
511,016	41774,47
511,214	41260,43
511,412	41452,94
511,609	40830,35
511,807	41285
512,005	40744,34
512,203	41194,89
512,4	41178,51
512,598	41065,87
512,796	40699,28
512,993	40854,93
513,191	41278,86
513,389	41080,21
513,586	41348,49
513,784	41467,27
513,981	41256,33
514,179	41745,79
514,377	41557,38
514,574	41409,93
514,772	40678,8
514,969	40822,16
515,167	39540,13
515,364	38991,28
515,562	38147,51
515,759	38157,75
515,957	37682,62
516,154	38331,83
516,352	38768,05
516,549	38475,19
516,746	38450,61
516,944	38602,16
517,141	39204,27
517,339	39073,2
517,536	39261,61
517,733	39265,7
517,931	39908,77
518,128	40623,51
518,325	40871,31
518,523	41522,57
518,72	41090,44
518,917	42374,52
519,115	41655,68
519,312	42159,48
519,509	42296,7
519,707	42433,91
519,904	42634,61
520,101	43246,96
520,298	43400,55
520,495	43703,65
520,693	43412,84
520,89	43138,41
521,087	43029,87
521,284	43683,17
521,481	42564,98
521,678	43578,73
521,876	43144,56
522,073	43535,72
522,27	43515,24
522,467	44078,43
522,664	44068,19
522,861	44705,11
523,058	44393,82
523,255	44584,28
523,452	44336,48
523,649	44557,66
523,846	44117,34
524,043	44576,09
524,24	44328,28
524,437	44113,25
524,634	43908,45
524,831	43668,84
525,028	41911,68
525,225	42022,27
525,422	40840,59
525,619	41301,39
525,816	40658,32
526,013	41719,17
526,209	41561,48
526,406	41960,83
526,603	42122,62
526,8	42614,13
526,997	42747,25
527,194	43767,14
527,39	43615,59
527,587	43818,34
527,784	44072,29
527,981	44246,36
528,177	44055,9
528,374	44377,43
528,571	43627,88
528,768	44350,81
528,964	44492,12
529,161	44791,12
529,358	45055,31
529,554	44787,03
529,751	44930,39
529,948	45270,35
530,144	44469,59
530,341	44850,52
530,537	44141,92
530,734	44451,16
530,931	43548,01
531,127	43328,87
531,324	42878,32
531,52	42876,27
531,717	42571,13
531,913	43140,46
532,11	42825,07
532,306	42808,69
532,503	42870,13
532,699	42833,27
532,896	43005,3
533,092	43244,91
533,289	43375,98
533,485	44096,86
533,682	44068,19
533,878	43840,87
534,074	43607,4
534,271	44959,06
534,467	44172,64
534,664	44094,82
534,86	43652,45
535,056	43834,72
535,253	42956,14
535,449	43244,91
535,645	42730,87
535,841	43083,12
536,038	42636,66
536,234	43191,66
536,43	43318,64
536,626	43812,2
536,823	43091,31
537,019	43300,2
537,215	42677,62
537,411	43036,02
537,607	42483,06
537,804	42970,48
538	41891,2
538,196	41776,51
538,392	41678,21
538,588	41776,51
538,784	40998,29
538,98	41205,13
539,176	40252,83
539,373	41211,28
539,569	40146,33
539,765	40590,74
539,961	40973,71
540,157	41043,34
540,353	40752,53
540,549	41401,74
540,745	41180,56
540,941	40916,37
541,137	40416,66
541,333	40422,81
541,528	40904,08
541,724	40863,12
541,92	40562,07
542,116	40756,63
542,312	40793,49
542,508	41280,91
542,704	41403,78
542,9	40914,32
543,096	41147,79
543,291	41041,29
543,487	41262,47
543,683	40918,42
543,879	41125,26
544,075	40760,72
544,27	40910,22
544,466	40506,77
544,662	40861,07
544,858	40912,27
545,053	40762,77
545,249	40750,48
545,445	40834,45
545,64	40539,54
545,836	40365,46
546,032	40101,28
546,227	40129,95
546,423	39835,04
546,619	40084,89
546,814	40082,84
547,01	40084,89
547,205	40320,41
547,401	39800,22
547,597	40744,34
547,792	39816,61
547,988	40521,11
548,183	39746,98
548,379	40433,05
548,574	39794,08
548,77	40359,32
548,965	39761,31
549,161	39728,55
549,356	39300,52
549,552	39720,35
549,747	39460,26
549,942	39525,8
550,138	39933,34
550,333	39632,29
550,529	39933,34
550,724	40273,31
550,919	39101,87
551,115	39882,14
551,31	39249,32
551,505	39638,44
551,701	39327,14
551,896	38837,68
552,091	39556,52
552,287	39343,53
552,482	39318,95
552,677	39142,83
552,872	38757,81
553,067	39239,08
553,263	39077,29
553,458	39486,89
553,653	38985,13
553,848	39374,25
554,043	38766
554,239	39314,86
554,434	38587,83
554,629	38729,14
554,824	38225,34
555,019	38491,57
555,214	38370,74
555,409	38022,59
555,604	37924,29
555,799	37627,33
555,994	37582,27
556,189	37404,1
556,384	37207,5
556,579	37404,1
556,774	36756,94
556,969	37430,72
557,164	36593,11
557,359	36220,38
557,554	36189,66
557,749	36101,59
557,944	35712,48
558,139	35878,36
558,334	35648,99
558,529	35915,23
558,724	35925,47
558,918	36115,93
559,113	36003,29
559,308	36558,29
559,503	36345,3
559,698	36423,12
559,893	36095,45
560,087	36115,93
560,282	35814,88
560,477	35837,41
560,672	35499,49
560,866	35835,36
561,061	35476,96
561,256	36107,74
561,45	35806,69
561,645	36101,59
561,84	35464,67
562,034	35904,99
562,229	35458,53
562,424	35618,27
562,618	35223,01
562,813	35405,28
563,008	34950,63
563,202	35300,84
563,397	35157,48
563,591	35079,66
563,786	34758,13
563,98	34856,43
564,175	34403,83
564,369	33922,55
564,564	34215,41
564,758	34397,68
564,953	33748,48
565,147	34248,18
565,342	33873,4
565,536	34063,86
565,731	34143,74
565,925	34551,28
566,119	34348,53
566,314	34035,19
566,508	33347,08
566,703	34082,3
566,897	33398,27
567,091	33590,78
567,286	32988,68
567,48	32833,04
567,674	32704,01
567,868	32945,67
568,063	32300,56
568,257	33345,03
568,451	33156,61
568,646	32589,33
568,84	32218,64
569,034	32032,28
569,228	31749,66
569,422	31987,22
569,616	31452,7
569,811	31231,52
570,005	31600,16
570,199	32001,56
570,393	32034,33
570,587	32132,63
570,781	32271,89
570,975	32005,66
571,169	32075,29
571,364	32458,26
571,558	32177,69
571,752	32790,03
571,946	31628,83
572,14	32206,36
572,334	31915,54
572,528	32081,43
572,722	31510,05
572,916	32118,29
573,109	31344,16
573,303	31194,66
573,497	31192,61
573,691	31616,54
573,885	31067,69
574,079	31759,9
574,273	30955,05
574,467	31069,73
574,661	30989,86
574,854	31012,39
575,048	31051,3
575,242	30967,34
575,436	31229,48
575,63	31270,43
575,823	31469,09
576,017	31401,5
576,211	30391,86
576,405	31116,84
576,598	30527,02
576,792	30748,2
576,986	30289,46
577,18	30096,95
577,373	30381,62
577,567	30584,37
577,761	30969,38
577,954	30973,48
578,148	30453,3
578,341	31075,88
578,535	30987,82
578,729	31168,04
578,922	30625,32
579,116	31301,15
579,309	31012,39
579,503	31536,67
579,696	31225,38
579,89	31594,01
580,083	31481,38
580,277	31639,07
580,47	31602,21
580,664	31962,65
580,857	31845,91
581,051	31764
581,244	31675,93
581,437	32323,09
581,631	31874,59
581,824	32122,39
582,018	32306,71
582,211	32200,21
582,404	32296,47
582,598	31970,84
582,791	32011,8
582,984	32054,81
583,178	32347,67
583,371	32376,34
583,564	31933,98
583,757	31829,53
583,951	31792,67
584,144	31735,32
584,337	31372,83
584,53	31045,16
584,723	30930,47
584,917	31403,55
585,11	31143,46
585,303	31944,22
585,496	30854,7
585,689	31440,42
585,882	30692,91
586,075	31063,59
586,268	29969,97
586,462	30402,1
586,655	29447,74
586,848	29357,63
587,041	28454,48
587,234	28184,15
587,427	27086,43
587,62	26639,98
587,813	26336,88
588,006	26345,07
588,199	26300,01
588,392	26230,38
588,585	26558,06
588,777	26760,81
588,97	26549,87
589,163	27240,03
589,356	27145,83
589,549	27324
589,742	27166,31
589,935	27201,12
590,128	26871,4
590,32	27201,12
590,513	26842,73
590,706	27225,7
590,899	27098,72
591,092	27235,94
591,284	27608,67
591,477	27797,08
591,67	27948,63
591,863	28055,12
592,055	27829,85
592,248	27905,62
592,441	27569,76
592,633	27979,35
592,826	27194,98
593,019	26908,26
593,211	26826,34
593,404	27113,06
593,596	27168,35
593,789	27293,28
593,982	27051,62
594,174	27375,2
594,367	27563,61
594,559	27692,63
594,752	27676,25
594,944	27823,7
595,137	27756,12
595,329	27405,92
595,522	27659,87
595,714	27995,73
595,907	27799,13
596,099	27491,93
596,292	27668,06
596,484	27790,94
596,676	27446,88
596,869	27590,23
597,061	27565,66
597,253	27942,49
597,446	27741,78
597,638	27907,67
597,83	27688,54
598,023	27948,63
598,215	27827,8
598,407	27993,68
598,6	27588,19
598,792	28204,63
598,984	27889,24
599,176	27670,11
599,369	27858,52
599,561	27993,68
599,753	27831,9
599,945	27936,34
600,137	27661,91
600,329	27362,91
600,522	27702,87
600,714	27872,85
600,906	27596,38
601,098	27934,29
601,29	27655,77
601,482	27893,33
601,674	27758,17
601,866	28278,35
602,058	27639,39
602,25	28030,55
602,442	27848,28
602,634	28165,71
602,826	27934,29
603,018	28005,97
603,21	28386,89
603,402	28069,46
603,594	27713,11
603,786	27956,82
603,978	28126,8
604,17	27881,05
604,362	27700,83
604,554	27575,9
604,745	27700,83
604,937	27766,36
605,129	27891,29
605,321	27289,18
605,513	27485,79
605,704	27815,51
605,896	27360,86
606,088	27483,74
606,28	27027,04
606,471	27143,78
606,663	26842,73
606,855	26607,21
607,047	26830,44
607,238	26975,84
607,43	26740,33
607,622	26941,03
607,813	26607,21
608,005	26764,9
608,197	26678,89
608,388	26635,88
608,58	26150,51
608,771	26375,79
608,963	26146,42
609,154	26398,32
609,346	25865,85
609,537	26404,46
609,729	26064,5
609,921	26451,56
610,112	26068,59
610,303	25755,25
610,495	25931,38
610,686	25529,98
610,878	25763,45
611,069	25593,47
611,261	25699,96
611,452	25048,71
611,643	25185,92
611,835	25040,51
612,026	24774,28
612,217	24868,48
612,409	24725,13
612,6	24790,66
612,791	24604,3
612,983	24805
613,174	24974,98
613,365	24845,96
613,557	24602,25
613,748	24749,7
613,939	24796,81
614,13	24370,83
614,321	24202,89
614,513	24589,96
614,704	23500,44
614,895	23946,9
615,086	23834,26
615,277	24161,94
615,468	23785,11
615,659	24065,68
615,851	23875,22
616,042	24030,87
616,233	24090,26
616,424	24403,6
616,615	23918,23
616,806	24456,84
616,997	24080,02
617,188	24067,73
617,379	24452,75
617,57	24274,57
617,761	24227,47
617,952	24211,09
618,143	24305,29
618,334	24364,68
618,524	24131,22
618,715	24383,12
618,906	24704,65
619,097	24462,99
619,288	24864,39
619,479	24657,54
619,67	24254,09
619,86	24510,09
620,051	24290,96
620,242	24432,27
620,433	24286,86
620,624	24614,54
620,814	24489,61
621,005	24546,95
621,196	24336,01
621,386	24268,43
621,577	24770,18
621,768	24510,09
621,958	24280,72
622,149	24534,67
622,34	24424,08
622,53	24254,09
622,721	24454,79
622,912	24532,62
623,102	25005,7
623,293	24645,26
623,483	24188,56
623,674	24424,08
623,864	24358,54
624,055	24315,53
624,245	24878,72
624,436	24133,26
624,626	24448,65
624,817	24551,05
625,007	24690,31
625,198	24805
625,388	24424,08
625,579	24395,4
625,769	24293,01
625,959	24301,2
626,15	23561,88
626,34	23295,64
626,531	23588,5
626,721	23627,42
626,911	23635,61
627,101	23918,23
627,292	23508,63
627,482	23758,49
627,672	23907,99
627,863	23838,36
628,053	24063,63
628,243	23879,32
628,433	23680,66
628,623	23967,38
628,814	23695
629,004	24104,59
629,194	23848,6
629,384	23647,9
629,574	23991,95
629,764	24000,15
629,955	23813,78
630,145	23824,02
630,335	23897,75
630,525	23938,71
630,715	23680,66
630,905	24030,87
631,095	23967,38
631,285	24315,53
631,475	24016,53
631,665	24338,06
631,855	24155,79
632,045	23987,86
632,235	24143,5
632,425	24237,71
632,615	24051,34
632,805	24272,53
632,994	23969,43
633,184	24395,4
633,374	24290,96
633,564	24190,61
633,754	24202,89
633,944	24428,17
634,133	23994
634,323	24475,27
634,513	24227,47
634,703	24559,24
634,893	24188,56
635,082	24233,61
635,272	24465,03
635,462	24409,74
635,651	24557,19
635,841	24637,06
636,031	24209,04
636,221	24487,56
636,41	24364,68
636,6	24551,05
636,789	24268,43
636,979	23928,47
637,169	24286,86
637,358	24317,58
637,548	24301,2
637,737	24135,31
637,927	24184,46
638,116	24026,77
638,306	24030,87
638,495	23856,79
638,685	23928,47
638,874	24045,2
639,064	23727,77
639,253	23768,73
639,443	23498,39
639,632	23760,53
639,822	23455,39
640,011	23727,77
640,2	23338,65
640,39	23711,38
640,579	23680,66
640,768	23699,09
640,958	23281,31
641,147	23555,74
641,336	23602,84
641,526	23443,1
641,715	23428,76
641,904	23791,25
642,093	23105,18
642,283	23451,29
642,472	23107,23
642,661	23260,83
642,85	23082,66
643,039	23342,75
643,228	23031,46
643,418	23080,61
643,607	22836,9
643,796	22767,27
643,985	22298,28
644,174	22415,02
644,363	22331,05
644,552	22341,29
644,741	21720,76
644,93	21778,1
645,119	21591,73
645,308	21837,49
645,497	21352,12
645,686	21251,77
645,875	21274,3
646,064	20936,38
646,253	20737,73
646,442	21122,75
646,631	20983,49
646,82	20715,2
647,009	20367,05
647,198	20715,2
647,387	20352,71
647,575	20281,03
647,764	21042,88
647,953	20068,05
648,142	20360,91
648,331	20393,67
648,519	20485,83
648,708	20661,96
648,897	20508,36
649,086	21176
649,274	20903,62
649,463	21071,55
649,652	20690,63
649,84	20631,24
650,029	20166,35
650,218	20334,28
650,406	20295,37
650,595	20123,34
650,784	20588,23
650,972	20672,2
651,161	20670,15
651,349	20788,93
651,538	20643,52
651,726	20614,85
651,915	20815,55
652,104	20799,17
652,292	20901,57
652,481	20655,81
652,669	20637,38
652,857	20651,72
653,046	20489,93
653,234	20229,84
653,423	20045,52
653,611	19955,41
653,8	19461,85
653,988	19320,54
654,176	18783,97
654,365	18579,17
654,553	18286,31
654,741	17854,19
654,93	17813,23
655,118	17882,86
655,306	17964,78
655,494	18353,9
655,683	18351,85
655,871	18841,31
656,059	19037,92
656,247	19111,64
656,436	19369,69
656,624	19683,03
656,812	19621,59
657	19562,2
657,188	19504,85
657,376	19951,31
657,564	19547,86
657,753	19930,83
657,941	19828,43
658,129	19961,55
658,317	19619,54
658,505	20172,49
658,693	20010,7
658,881	20256,46
659,069	20115,15
659,257	20215,5
659,445	20410,06
659,633	20397,77
659,821	20135,63
660,009	20604,61
660,197	20059,85
660,384	20635,33
660,572	20475,59
660,76	20518,6
660,948	20317,9
661,136	20156,11
661,324	20104,91
661,512	20444,87
661,699	20182,73
661,887	20537,03
662,075	19951,31
662,263	19959,5
662,451	20156,11
662,638	20045,52
662,826	19812,05
663,014	20352,71
663,201	19891,92
663,389	20164,3
663,577	20195,02
663,764	20375,24
663,952	19922,64
664,14	20262,6
664,327	20094,67
664,515	20145,87
664,702	19926,74
664,89	19828,43
665,078	19664,6
665,265	19705,56
665,453	19607,25
665,64	19556,05
665,828	19621,59
666,015	19511
666,203	19605,2
666,39	19844,82
666,578	19424,98
666,765	19795,67
666,952	19875,54
667,14	19881,68
667,327	19678,93
667,515	19558,1
667,702	19152,6
667,889	19521,24
668,077	19476,18
668,264	19406,55
668,451	19390,17
668,638	19726,03
668,826	19406,55
669,013	19175,13
669,2	19134,17
669,388	19123,93
669,575	18943,71
669,762	18853,6
669,949	18566,88
670,136	19680,98
670,323	18802,4
670,511	18773,73
670,698	18724,58
670,885	18794,21
671,072	18812,64
671,259	18710,24
671,446	18562,79
671,633	18669,28
671,82	18548,45
672,007	18714,34
672,194	18464,49
672,381	18339,56
672,568	18935,52
672,755	18693,86
672,942	18343,66
673,129	18405,1
673,316	18454,25
673,503	18243,31
673,69	18304,74
673,877	18585,32
674,064	18466,53
674,251	18360,04
674,437	18130,67
674,624	18357,99
674,811	18261,74
674,998	18353,9
675,185	18163,43
675,372	18323,18
675,558	18136,81
675,745	17985,26
675,932	18046,7
676,119	18220,78
676,305	18095,85
676,492	18345,7
676,679	17696,5
676,865	17762,03
677,052	17753,84
677,239	17921,77
677,425	17669,87
677,612	18181,87
677,798	17968,88
677,985	17694,45
678,172	17641,2
678,358	17639,15
678,545	17702,64
678,731	17673,97
678,918	17491,7
679,104	17618,68
679,291	17444,6
679,477	17028,86
679,664	17141,5
679,85	17413,88
680,036	17229,56
680,223	17229,56
680,409	17176,31
680,596	16987,9
680,782	17164,03
680,968	17198,84
681,155	17020,67
681,341	16836,35
681,527	16983,8
681,714	16942,85
681,9	16938,75
682,086	16840,45
682,272	16826,11
682,459	16649,99
682,645	16633,6
682,831	16783,1
683,017	16822,02
683,204	16426,76
683,39	16291,59
683,576	16508,68
683,762	16475,91
683,948	16451,33
684,134	16084,75
684,32	16123,66
684,506	15712,02
684,693	15079,19
684,879	14479,14
685,065	13438,77
685,251	12642,11
685,437	12111,69
685,623	11708,24
685,809	11528,02
685,995	11462,48
686,181	11624,27
686,366	11800,4
686,552	12046,15
686,738	11865,93
686,924	11980,62
687,11	11808,59
687,296	12158,79
687,482	11874,12
687,668	11560,78
687,853	11661,13
688,039	11788,11
688,225	11816,78
688,411	11966,28
688,597	11923,27
688,782	11960,14
688,968	12193,61
689,154	12470,08
689,34	12312,39
689,525	12678,97
689,711	12584,77
689,897	12879,68
690,082	12959,55
690,268	12894,01
690,454	12732,22
690,639	12908,35
690,825	12975,93
691,01	12949,31
691,196	12756,8
691,381	12754,75
691,567	12416,83
691,753	12330,82
691,938	12341,06
692,124	12355,4
692,309	12218,18
692,494	12099,4
692,68	12240,71
692,865	12420,93
693,051	12144,45
693,236	12248,9
693,422	12203,85
693,607	11978,57
693,792	11980,62
693,978	12343,11
694,163	12480,32
694,348	12379,97
694,534	12390,21
694,719	12617,54
694,904	12676,93
695,089	13049,66
695,275	13150,01
695,46	13131,58
695,645	13182,77
695,83	12967,74
696,016	13199,16
696,201	12953,4
696,386	13127,48
696,571	12879,68
696,756	12775,23
696,941	12980,03
697,126	12437,31
697,311	12586,82
697,497	12177,22
697,682	12382,02
697,867	12154,69
698,052	12341,06
698,237	12119,88
698,422	12169,03
698,607	12072,78
698,792	12074,82
698,977	11812,68
699,162	11947,85
699,347	11843,4
699,531	11902,79
699,716	11841,36
699,901	11751,24
700,086	11593,55
700,271	11773,77
700,456	11552,59
700,641	11632,46
700,825	11417,43
701,01	11847,5
701,195	11956,04
701,38	11898,7
701,565	11747,15
701,749	12087,11
701,934	11837,26
702,119	12232,52
702,303	12164,93
702,488	12005,19
702,673	12128,07
702,857	12158,79
703,042	12183,37
703,227	12273,48
703,411	11923,27
703,596	12296
703,78	11964,23
703,965	12097,35
704,15	11882,31
704,334	12015,43
704,519	11781,96
704,703	12037,96
704,888	12105,54
705,072	12236,61
705,257	12076,87
705,441	12107,59
705,625	12066,63
705,81	12177,22
705,994	12021,58
706,179	12199,75
706,363	12140,36
706,547	11964,23
706,732	12097,35
706,916	12289,86
707,1	11947,85
707,285	11972,43
707,469	12040,01
707,653	11951,95
707,837	11857,74
708,022	12121,93
708,206	12173,13
708,39	11997
708,574	11857,74
708,759	11917,13
708,943	11845,45
709,127	12021,58
709,311	11767,63
709,495	11759,44
709,679	11698
709,863	11779,92
710,047	11736,91
710,231	12062,54
710,415	11747,15
710,6	11743,05
710,784	11822,92
710,968	11726,67
711,152	11626,32
711,336	11517,78
711,519	11681,61
711,703	11554,64
711,887	11513,68
712,071	11560,78
712,255	11487,06
712,439	11439,95
712,623	11437,91
712,807	11355,99
712,991	11382,61
713,174	11138,9
713,358	11075,41
713,542	10964,82
713,726	11114,33
713,91	10798,94
714,093	10930,01
714,277	10856,28
714,461	10280,8
714,645	10061,67
714,828	9658,22
715,012	9176,95
715,196	9162,61
715,379	8460,16
715,563	8343,42
715,747	8013,7
715,93	7915,4
716,114	7563,15
716,297	7475,09
716,481	7241,62
716,664	7083,92
716,848	6901,65
717,031	6842,26
717,215	6590,36
717,398	6592,41
717,582	6385,57
717,765	6399,9
717,949	6164,39
718,132	6098,85
718,316	6023,08
718,499	6008,74
718,682	6223,78
718,866	6342,56
719,049	6598,56
719,233	6926,23
719,416	7227,28
719,599	7446,41
719,782	7710,6
719,966	7948,17
720,149	8284,03
720,332	8083,33
720,515	8486,78
720,699	8198,02
720,882	8302,47
721,065	8204,16
721,248	8009,61
721,431	8187,78
721,615	7667,59
721,798	7518,09
721,981	7417,74
722,164	7253,91
722,347	7079,83
722,53	7229,33
722,713	7065,49
722,896	7004,05
723,079	6809,5
723,262	6758,3
723,445	6991,77
723,628	6619,03
723,811	6670,23
723,994	6662,04
724,177	6762,39
724,36	6752,15
724,543	6866,84
724,726	6643,61
724,909	6854,55
725,091	6915,99
725,274	6801,3
725,457	6696,86
725,64	6623,13
725,823	6836,12
726,006	6422,43
726,188	6616,99
726,371	6938,52
726,554	6875,03
726,737	6823,83
726,919	6729,63
727,102	6674,33
727,285	6657,95
727,467	6621,08
727,65	6762,39
727,833	6803,35
728,015	6561,69
728,198	6866,84
728,38	6676,38
728,563	6692,76
728,746	6696,86
728,928	6621,08
729,111	6711,19
729,293	6815,64
729,476	6676,38
729,658	6729,63
729,841	6780,82
730,023	7106,45
730,205	6993,81
730,388	7444,37
730,57	7677,83
730,753	7714,7
730,935	7847,82
731,117	7808,9
731,3	7751,56
731,482	7872,39
731,664	7985,03
731,847	8112
732,029	8220,55
732,211	8521,6
732,394	8363,9
732,576	8421,25
732,758	8443,78
732,94	8472,45
733,122	8578,94
733,305	8482,69
733,487	8249,22
733,669	8497,02
733,851	8380,29
734,033	8298,37
734,215	8228,74
734,397	8363,9
734,58	8130,44
734,762	8286,08
734,944	8130,44
735,126	8279,94
735,308	8185,73
735,49	8204,16
735,672	8306,56
735,854	8441,73
736,036	8374,14
736,218	8251,27
736,399	8384,38
736,581	8423,3
736,763	8341,38
736,945	8376,19
737,127	8333,18
737,309	8482,69
737,491	8245,12
737,672	8206,21
737,854	8185,73
738,036	8374,14
738,218	8619,9
738,4	8314,75
738,581	8456,06
738,763	8449,92
738,945	8320,9
739,127	8400,77
739,308	8560,51
739,49	8568,7
739,672	8372,1
739,853	8320,9
740,035	8294,27
740,216	8398,72
740,398	8490,88
740,58	8265,6
740,761	8398,72
740,943	8449,92
741,124	8494,97
741,306	8519,55
741,487	8572,8
741,669	8589,18
741,85	8540,03
742,032	8441,73
742,213	8552,32
742,394	8585,08
742,576	8384,38
742,757	8636,28
742,939	8540,03
743,12	8513,41
743,301	8451,97
743,483	8273,79
743,664	8435,58
743,845	8320,9
744,027	8382,34
744,208	8339,33
744,389	8441,73
744,57	8509,31
744,752	8531,84
744,933	8339,33
745,114	8345,47
745,295	8449,92
745,476	8314,75
745,657	8370,05
745,839	8333,18
746,02	8445,82
746,201	8372,1
746,382	8501,12
746,563	8368
746,744	8396,67
746,925	8398,72
747,106	8312,71
747,287	8193,92
747,468	8214,4
747,649	8316,8
747,83	8271,75
748,011	8241,03
748,192	8269,7
748,373	8128,39
748,554	8259,46
748,735	8130,44
748,915	8220,55
749,096	8269,7
749,277	8261,51
749,458	8253,31
749,639	8333,18
749,82	8341,38
750	8408,96
750,181	8351,62
750,362	8146,82
750,543	8304,51
750,723	8454,01
750,904	8341,38
751,085	8103,81
751,265	8329,09
751,446	8415,1
751,627	8486,78
751,807	8474,49
751,988	8380,29
752,169	8736,63
752,349	8667
752,53	8761,21
752,71	8578,94
752,891	8585,08
753,071	8595,32
753,252	8621,95
753,432	8634,24
753,613	8755,07
753,793	8900,47
753,974	8681,34
754,154	8634,24
754,334	8798,07
754,515	8988,53
754,695	8693,63
754,876	8705,92
755,056	8730,49
755,236	8816,51
755,417	8679,29
755,597	8781,69
755,777	8761,21
755,957	8779,64
756,138	8757,11
756,318	8785,79
756,498	8654,72
756,678	8744,83
756,859	8529,79
757,039	8294,27
757,219	7841,67
757,399	7501,71
757,579	6805,4
757,759	5846,95
757,939	5029,81
758,119	4173,76
758,3	3336,14
758,48	2764,76
758,66	2115,55
758,84	1638,37
759,02	1443,82
759,2	1366
759,38	1339,37
759,56	1511,4
759,74	1722,34
759,919	1943,52
760,099	2244,57
760,279	2523,1
760,459	2541,53
760,639	2500,57
760,819	2402,27
760,999	2222,05
761,178	2246,62
761,358	2172,89
761,538	2133,98
761,718	2076,64
761,898	2154,46
762,077	2123,74
762,257	2267,1
762,437	2408,41
762,616	2586,58
762,796	2738,13
762,976	2949,07
763,155	3094,48
763,335	3370,96
763,515	3590,09
763,694	3827,65
763,874	3936,2
764,053	4220,86
764,233	4466,62
764,413	4745,14
764,592	4874,17
764,772	5246,9
764,951	5361,58
765,131	5359,53
765,31	5863,33
765,489	5861,29
765,669	6021,03
765,848	6426,53
766,028	6344,61
766,207	6414,24
766,386	6639,51
766,566	6688,67
766,745	6866,84
766,924	6852,5
767,104	6860,7
767,283	6825,88
767,462	6854,55
767,642	6948,76
767,821	6956,95
768	6932,37
768,179	6770,58
768,358	6938,52
768,538	6799,26
768,717	6819,74
768,896	6959
769,075	6789,02
769,254	6928,28
769,433	6780,82
769,612	6942,61
769,791	6793,11
769,97	6842,26
770,149	6817,69
770,328	6655,9
770,507	6635,42
770,686	6688,67
770,865	6662,04
771,044	6602,65
771,223	6625,18
771,402	6629,27
771,581	6606,75
771,76	6627,23
771,939	6578,08
772,118	6416,29
772,297	6473,63
772,475	6389,66
772,654	6309,79
772,833	6309,79
773,012	6473,63
773,191	6209,44
773,369	6373,28
773,548	6281,12
773,727	6133,67
773,906	6154,15
774,084	6074,28
774,263	6139,81
774,442	5947,3
774,62	6166,43
774,799	6031,27
774,977	6045,6
775,156	6012,84
775,335	6000,55
775,513	5889,96
775,692	5838,76
775,87	5689,26
776,049	5738,41
776,227	5851,05
776,406	5791,66
776,584	5812,14
776,763	5625,77
776,941	5746,6
777,119	5707,69
777,298	5578,67
777,476	5562,28
777,655	5537,71
777,833	5525,42
778,011	5564,33
778,19	5490,6
778,368	5451,69
778,546	5339,05
778,725	5476,27
778,903	5308,33
779,081	5277,62
779,259	5269,42
779,437	5302,19
779,616	5441,45
779,794	5267,38
779,972	5347,25
780,15	5287,86
780,328	5205,94
780,506	5300,14
780,685	5271,47
780,863	5056,43
781,041	5140,4
781,219	5144,5
781,397	4962,23
781,575	5023,67
781,753	4984,76
781,931	4784,05
782,109	4845,49
782,287	4902,84
782,465	4945,84
782,643	4968,37
782,82	4857,78
782,998	4939,7
783,176	4814,77
783,354	4751,29
783,532	4765,62
783,71	4605,88
783,888	4710,33
784,065	4556,73
784,243	4632,51
784,421	4769,72
784,599	4464,57
784,776	4589,5
784,954	4411,32
785,132	4446,14
785,31	4534,2
785,487	4401,08
785,665	4300,73
785,842	4386,75
786,02	4517,82
786,198	4239,3
786,375	4206,53
786,553	4175,81
786,73	4300,73
786,908	3977,16
787,085	3981,25
787,263	3958,72
787,44	3950,53
787,618	3805,13
787,795	3809,22
787,973	3854,28
788,15	4016,07
788,328	3885
788,505	3831,75
788,682	3936,2
788,86	3854,28
789,037	3860,42
789,215	3985,35
789,392	3778,5
789,569	3737,54
789,746	3772,36
789,924	3755,97
790,101	3831,75
790,278	3712,97
790,455	3610,57
790,633	3622,86
790,81	3690,44
790,987	3672,01
791,164	3651,53
791,341	3704,78
791,518	3663,82
791,695	3690,44
791,873	3770,31
792,05	3606,47
792,227	3694,54
792,404	3639,24
792,581	3592,14
792,758	3549,13
792,935	3581,9
793,112	3706,82
793,289	3592,14
793,466	3592,14
793,643	3563,47
793,82	3379,15
793,996	3467,21
794,173	3346,38
794,35	3260,37
794,527	3311,57
794,704	3389,39
794,881	3162,06
795,057	3323,85
795,234	3162,06
795,411	3239,89
795,588	3340,24
795,765	3196,88
795,941	3344,33
796,118	3444,68
796,295	3411,92
796,471	3370,96
796,648	3262,41
796,825	3272,65
797,001	3426,25
797,178	3299,28
797,354	3350,48
797,531	3289,04
797,708	3207,12
797,884	3059,67
798,061	3096,53
798,237	3020,75
798,414	3125,2
798,59	3166,16
798,767	3043,28
798,943	3014,61
799,119	3018,71
799,296	3022,8
799,472	3059,67
799,649	3071,95
799,825	2969,55
800,001	2912,21
800,178	2998,23
800,354	3016,66
800,53	2953,17
800,707	2791,38
800,883	2799,57
801,059	2830,29
801,235	2836,44
801,411	2867,16
801,588	2791,38
801,764	2998,23
801,94	2791,38
802,116	2809,81
802,292	2764,76
802,468	2846,68
802,645	2893,78
802,821	2826,2
802,997	2705,37
803,173	2797,53
803,349	2863,06
803,525	2924,5
803,701	2867,16
803,877	2822,1
804,053	2963,41
804,229	2795,48
804,405	2994,13
804,581	2879,44
804,756	2822,1
804,932	2871,25
805,108	2615,26
805,284	2789,33
805,46	2848,72
805,636	2736,09
805,812	2754,52
805,987	2846,68
806,163	2654,17
806,339	2844,63
806,515	2496,47
806,69	2682,84
806,866	2793,43
807,042	2723,8
807,217	2564,06
807,393	2666,46
807,569	2551,77
807,744	2609,11
807,92	2537,43
808,096	2566,1
808,271	2576,34
808,447	2492,38
808,622	2439,13
808,798	2461,66
808,973	2467,8
809,149	2367,45
809,324	2455,51
809,5	2435,03
809,675	2306,01
809,851	2271,2
810,026	2328,54
810,201	2332,64
810,377	2140,13
810,552	2088,93
810,728	2160,61
810,903	2140,13
811,078	2093,02
811,253	2027,49
811,429	1943,52
811,604	1830,88
811,779	1910,75
811,955	1812,45
812,13	1927,14
812,305	1859,56
812,48	1691,62
812,655	1738,73
812,83	1697,77
813,006	1562,6
813,181	1509,35
813,356	1654,76
813,531	1527,78
813,706	1597,42
813,881	1509,35
814,056	1404,91
814,231	1533,93
814,406	1337,32
814,581	1400,81
814,756	1368,04
814,931	1396,71
815,106	1419,24
815,281	1396,71
815,456	1421,29
815,631	1437,67
815,805	1409
815,98	1347,56
816,155	1312,75
816,33	1304,56
816,505	1339,37
816,68	1388,52
816,854	1466,35
817,029	1462,25
817,204	1368,04
817,379	1376,23
817,553	1413,1
817,728	1298,41
817,903	1318,89
818,077	1472,49
818,252	1615,85
818,427	1601,51
818,601	1673,19
818,776	1650,66
818,95	1746,92
819,125	1830,88
819,299	1748,97
819,474	1751,01
819,648	1722,34
819,823	1796,07
819,997	1675,24
820,172	1478,63
820,346	1568,74
820,521	1468,39
820,695	1279,98
820,87	1263,6
821,044	1073,14
821,218	1183,73
821,393	1122,29
821,567	1058,8
821,741	1216,49
821,916	1290,22
822,09	1409
822,264	1402,86
822,438	1490,92
822,613	1535,98
822,787	1605,61
822,961	1562,6
823,135	1597,42
823,309	1585,13
823,483	1695,72
823,658	1605,61
823,832	1495,02
824,006	1495,02
824,18	1601,51
824,354	1638,37
824,528	1656,81
824,702	1585,13
824,876	1583,08
825,05	1691,62
825,224	1628,14
825,398	1486,83
825,572	1290,22
825,746	1300,46
825,92	1429,48
826,093	1378,28
826,267	1535,98
826,441	1452,01
826,615	1396,71
826,789	1390,57
826,963	1482,73
827,136	1339,37
827,31	1318,89
827,484	1339,37
827,658	1458,15
827,831	1380,33
828,005	1411,05
828,179	1404,91
828,353	1433,58
828,526	1331,18
828,7	1488,87
828,873	1339,37
829,047	1341,42
829,221	1433,58
829,394	1413,1
829,568	1380,33
829,741	1404,91
829,915	1329,13
830,088	1413,1
830,262	1445,87
830,435	1357,8
830,609	1388,52
830,782	1411,05
830,956	1423,34
831,129	1433,58
831,302	1386,47
831,476	1333,23
831,649	1378,28
831,822	1372,14
831,996	1447,91
832,169	1349,61
832,342	1378,28
832,516	1437,67
832,689	1372,14
832,862	1462,25
833,035	1517,54
833,209	1540,07
833,382	1468,39
833,555	1462,25
833,728	1370,09
833,901	1437,67
834,074	1462,25
834,247	1339,37
834,42	1437,67
834,594	1433,58
834,767	1466,35
834,94	1521,64
835,113	1517,54
835,286	1380,33
835,459	1509,35
835,632	1368,04
835,805	1411,05
835,977	1443,82
836,15	1335,28
836,323	1441,77
836,496	1478,63
836,669	1470,44
836,842	1404,91
837,015	1460,2
837,188	1429,48
837,36	1468,39
837,533	1456,11
837,706	1531,88
837,879	1546,22
838,051	1394,67
838,224	1529,83
838,397	1460,2
838,569	1413,1
838,742	1427,43
838,915	1486,83
839,087	1421,29
839,26	1411,05
839,433	1355,76
839,605	1499,11
839,778	1349,61
839,95	1404,91
840,123	1388,52
840,295	1404,91
840,468	1329,13
840,64	1411,05
840,813	1363,95
840,985	1304,56
841,158	1411,05
841,33	1468,39
841,502	1415,15
841,675	1404,91
841,847	1406,95
842,019	1347,56
842,192	1347,56
842,364	1363,95
842,536	1318,89
842,709	1345,52
842,881	1374,19
843,053	1296,36
843,225	1333,23
843,398	1415,15
843,57	1411,05
843,742	1259,5
843,914	1361,9
844,086	1388,52
844,258	1306,6
844,43	1341,42
844,602	1357,8
844,775	1363,95
844,947	1294,32
845,119	1286,12
845,291	1298,41
845,463	1388,52
845,635	1202,16
845,807	1259,5
845,979	1322,99
846,15	1290,22
846,322	1257,45
846,494	1269,74
846,666	1304,56
846,838	1247,21
847,01	1361,9
847,182	1306,6
847,354	1118,19
847,525	1208,3
847,697	1224,69
847,869	1122,29
848,041	1224,69
848,212	1196,01
848,384	1114,1
848,556	1116,14
848,727	1157,1
848,899	1064,94
849,071	1077,23
849,242	1134,57
849,414	1150,96
849,585	1017,84
849,757	1112,05
849,929	1107,95
850,1	985,07
850,272	1165,29
850,443	1150,96
850,615	1122,29
850,786	1148,91
850,958	1056,75
851,129	1085,42
851,3	1208,3
851,472	1081,33
851,643	1075,18
851,815	1044,46
851,986	1077,23
852,157	1069,04
852,329	1105,9
852,5	894,96
852,671	1058,8
852,842	1013,74
853,014	911,35
853,185	933,87
853,356	919,54
853,527	991,22
853,698	974,83
853,87	1019,89
854,041	1138,67
854,212	1034,22
854,383	1007,6
854,554	1040,37
854,725	1177,58
854,896	1028,08
855,067	1017,84
855,238	921,59
855,409	989,17
855,58	993,26
855,751	1087,47
855,922	1015,79
856,093	1167,34
856,264	954,35
856,435	978,93
856,606	954,35
856,777	1013,74
856,948	976,88
857,118	950,26
857,289	1013,74
857,46	1085,42
857,631	1066,99
857,802	980,98
857,972	909,3
858,143	1042,42
858,314	976,88
858,484	919,54
858,655	897,01
858,826	911,35
858,996	905,2
859,167	991,22
859,338	983,02
859,508	980,98
859,679	899,06
859,849	905,2
860,02	909,3
860,19	931,83
860,361	811
860,531	927,73
860,702	958,45
860,872	944,11
861,043	937,97
861,213	874,48
861,384	876,53
861,554	894,96
861,724	770,04
861,895	772,08
862,065	978,93
862,235	739,32
862,406	835,57
862,576	841,72
862,746	856,05
862,916	761,84
863,087	985,07
863,257	827,38
863,427	819,19
863,597	770,04
863,767	772,08
863,937	741,36
864,108	884,72
864,278	761,84
864,448	815,09
864,618	786,42
864,788	704,5
864,958	788,47
865,128	632,82
865,298	786,42
865,468	774,13
865,638	731,12
865,808	765,94
865,978	839,67
866,148	714,74
866,318	747,51
866,487	739,32
866,657	800,76
866,827	847,86
866,997	661,49
867,167	757,75
867,337	692,21
867,506	679,93
867,676	641,01
867,846	714,74
868,016	708,6
868,185	714,74
868,355	743,41
868,525	692,21
868,694	737,27
868,864	692,21
869,034	708,6
869,203	669,69
869,373	681,97
869,542	763,89
869,712	700,41
869,881	718,84
870,051	700,41
870,22	684,02
870,39	671,73
870,559	618,49
870,729	655,35
870,898	757,75
871,068	692,21
871,237	569,34
871,406	581,62
871,576	681,97
871,745	671,73
871,914	606,2
872,084	610,29
872,253	577,53
872,422	618,49
872,591	667,64
872,761	567,29
872,93	878,58
873,099	665,59
873,268	581,62
873,437	450,55
873,607	673,78
873,776	643,06
873,945	544,76
874,114	526,33
874,283	520,18
874,452	600,05
874,621	569,34
874,79	686,07
874,959	577,53
875,128	538,62
875,297	583,67
875,466	585,72
875,635	661,49
875,804	520,18
875,973	358,39
876,142	591,86
876,31	479,22
876,479	550,9
876,648	534,52
876,817	540,66
876,986	643,06
877,155	552,95
877,323	503,8
877,492	591,86
877,661	589,82
877,829	559,1
877,998	471,03
878,167	536,57
878,335	454,65
878,504	452,6
878,673	520,18
878,841	477,18
879,01	487,42
879,178	505,85
879,347	565,24
879,515	532,47
879,684	507,9
879,852	511,99
880,021	503,8
880,189	516,09
880,358	509,94
880,526	624,63
880,695	444,41
880,863	471,03
881,031	434,17
881,2	438,27
881,368	462,84
881,536	565,24
881,705	430,07
881,873	466,94
882,041	509,94
882,21	395,26
882,378	454,65
882,546	399,35
882,714	397,31
882,882	464,89
883,05	452,6
883,219	475,13
883,387	360,44
883,555	397,31
883,723	391,16
883,891	434,17
884,059	468,98
884,227	421,88
884,395	485,37
884,563	534,52
884,731	339,96
884,899	337,91
885,067	446,46
885,235	360,44
885,403	389,11
885,571	421,88
885,739	372,73
