Data from USB4F035431__6__14-12-15-628.txt Node

Date: Wed Feb 12 14:12:15 CET 2025
User: Versuch 234
Spectrometer: USB4F03543
Trigger mode: 4
Integration Time (sec): 1,000000E-1
Scans to average: 1
Electric dark correction enabled: true
Nonlinearity correction enabled: false
Boxcar width: 0
XAxis mode: Wavelengths
Number of Pixels in Spectrum: 3648
>>>>>Begin Spectral Data<<<<<
179,969	-144,89
180,181	-144,89
180,394	-144,89
180,606	-161,28
180,819	-218,62
181,031	33,28
181,243	104,96
181,456	-32,26
181,668	39,42
181,88	-17,92
182,093	-3,58
182,305	-34,3
182,518	-1,54
182,73	45,57
182,942	-34,3
183,155	-32,26
183,367	-67,07
183,579	10,75
183,791	-15,87
184,004	-54,78
184,216	-44,54
184,428	-79,36
184,641	-9,73
184,853	-50,69
185,065	-77,31
185,277	51,71
185,49	-7,68
185,702	18,94
185,914	-81,41
186,126	-5,63
186,338	39,42
186,551	-15,87
186,763	45,57
186,975	-71,17
187,187	14,85
187,399	-46,59
187,612	-34,3
187,824	-1,54
188,036	27,14
188,248	-7,68
188,46	-11,78
188,672	8,7
188,885	-22,02
189,097	-17,92
189,309	-52,74
189,521	8,7
189,733	4,61
189,945	4,61
190,157	33,28
190,369	-38,4
190,581	-7,68
190,794	12,8
191,006	-38,4
191,218	16,9
191,43	8,7
191,642	-87,55
191,854	27,14
192,066	76,29
192,278	16,9
192,49	-67,07
192,702	35,33
192,914	-71,17
193,126	14,85
193,338	-77,31
193,55	-15,87
193,762	57,86
193,974	-165,37
194,186	-71,17
194,398	-83,45
194,61	-40,45
194,822	33,28
195,034	20,99
195,246	25,09
195,457	6,66
195,669	49,66
195,881	0,51
196,093	-67,07
196,305	37,38
196,517	-83,45
196,729	27,14
196,941	-38,4
197,153	70,14
197,365	125,44
197,576	-15,87
197,788	-67,07
198	84,48
198,212	-11,78
198,424	27,14
198,636	-81,41
198,847	-50,69
199,059	-19,97
199,271	-15,87
199,483	31,23
199,695	-73,21
199,906	27,14
200,118	-28,16
200,33	0,51
200,542	168,45
200,753	-42,5
200,965	-24,06
201,177	-32,26
201,389	-1,54
201,6	-75,26
201,812	-22,02
202,024	0,51
202,235	-75,26
202,447	2,56
202,659	45,57
202,871	-22,02
203,082	-60,93
203,294	-50,69
203,506	8,7
203,717	-24,06
203,929	27,14
204,141	-54,78
204,352	66,05
204,564	-40,45
204,775	43,52
204,987	72,19
205,199	43,52
205,41	-65,02
205,622	96,77
205,833	-3,58
206,045	16,9
206,257	-38,4
206,468	-93,69
206,68	-75,26
206,891	-56,83
207,103	-32,26
207,314	-1,54
207,526	-34,3
207,737	-46,59
207,949	-32,26
208,16	-15,87
208,372	47,62
208,583	29,18
208,795	-60,93
209,006	53,76
209,218	-7,68
209,429	-30,21
209,641	-56,83
209,852	-13,82
210,064	41,47
210,275	-42,5
210,487	18,94
210,698	47,62
210,909	-17,92
211,121	-9,73
211,332	41,47
211,544	-9,73
211,755	35,33
211,966	98,81
212,178	-5,63
212,389	123,39
212,6	6,66
212,812	27,14
213,023	6,66
213,234	12,8
213,446	43,52
213,657	-3,58
213,868	43,52
214,08	37,38
214,291	6,66
214,502	14,85
214,714	-52,74
214,925	2,56
215,136	25,09
215,347	-54,78
215,559	-77,31
215,77	-138,75
215,981	2,56
216,192	-110,08
216,404	18,94
216,615	-26,11
216,826	96,77
217,037	-1,54
217,249	-13,82
217,46	41,47
217,671	-48,64
217,882	-79,36
218,093	-62,98
218,304	-58,88
218,516	-22,02
218,727	-120,32
218,938	-24,06
219,149	76,29
219,36	49,66
219,571	8,7
219,782	-13,82
219,993	68,09
220,205	-71,17
220,416	115,2
220,627	-9,73
220,838	-13,82
221,049	139,77
221,26	29,18
221,471	-38,4
221,682	47,62
221,893	31,23
222,104	-69,12
222,315	-40,45
222,526	-58,88
222,737	-17,92
222,948	-3,58
223,159	-108,03
223,37	10,75
223,581	-22,02
223,792	-11,78
224,003	-24,06
224,214	-46,59
224,425	55,81
224,636	35,33
224,847	33,28
225,058	10,75
225,269	109,05
225,48	35,33
225,691	16,9
225,902	57,86
226,112	-44,54
226,323	-69,12
226,534	-56,83
226,745	-1,54
226,956	-56,83
227,167	-34,3
227,378	37,38
227,589	-91,65
227,799	51,71
228,01	10,75
228,221	-67,07
228,432	-22,02
228,643	41,47
228,853	-13,82
229,064	-32,26
229,275	6,66
229,486	18,94
229,697	25,09
229,907	-73,21
230,118	41,47
230,329	37,38
230,54	-97,79
230,75	-28,16
230,961	8,7
231,172	-50,69
231,383	-30,21
231,593	-46,59
231,804	23,04
232,015	-28,16
232,225	8,7
232,436	-30,21
232,647	35,33
232,857	41,47
233,068	-71,17
233,279	27,14
233,489	27,14
233,7	4,61
233,91	-67,07
234,121	-9,73
234,332	-13,82
234,542	51,71
234,753	14,85
234,964	-15,87
235,174	-67,07
235,385	66,05
235,595	23,04
235,806	8,7
236,016	10,75
236,227	-38,4
236,437	-22,02
236,648	-38,4
236,858	8,7
237,069	-75,26
237,279	-81,41
237,49	-54,78
237,7	72,19
237,911	74,24
238,121	-22,02
238,332	-48,64
238,542	-19,97
238,753	14,85
238,963	-46,59
239,174	4,61
239,384	35,33
239,595	-15,87
239,805	-91,65
240,015	8,7
240,226	59,9
240,436	-7,68
240,647	-17,92
240,857	-42,5
241,067	4,61
241,278	150,01
241,488	-15,87
241,698	20,99
241,909	-24,06
242,119	16,9
242,329	27,14
242,54	27,14
242,75	-32,26
242,96	-38,4
243,171	2,56
243,381	-13,82
243,591	-40,45
243,801	47,62
244,012	29,18
244,222	6,66
244,432	-99,84
244,642	-46,59
244,853	14,85
245,063	-38,4
245,273	16,9
245,483	37,38
245,694	-24,06
245,904	8,7
246,114	27,14
246,324	-42,5
246,534	-24,06
246,744	29,18
246,955	-91,65
247,165	10,75
247,375	27,14
247,585	-26,11
247,795	-30,21
248,005	-58,88
248,215	-5,63
248,425	43,52
248,636	57,86
248,846	-5,63
249,056	2,56
249,266	-87,55
249,476	-17,92
249,686	-40,45
249,896	-99,84
250,106	-5,63
250,316	-22,02
250,526	100,86
250,736	-19,97
250,946	98,81
251,156	14,85
251,366	64
251,576	14,85
251,786	31,23
251,996	-17,92
252,206	-5,63
252,416	-5,63
252,626	-95,74
252,836	-34,3
253,046	23,04
253,256	57,86
253,466	-7,68
253,676	2,56
253,885	16,9
254,095	31,23
254,305	27,14
254,515	-5,63
254,725	6,66
254,935	-79,36
255,145	64
255,355	107,01
255,564	2,56
255,774	55,81
255,984	76,29
256,194	-38,4
256,404	-32,26
256,614	49,66
256,823	2,56
257,033	-34,3
257,243	-46,59
257,453	-34,3
257,662	-73,21
257,872	18,94
258,082	-7,68
258,292	-62,98
258,501	41,47
258,711	115,2
258,921	-3,58
259,131	-44,54
259,34	72,19
259,55	-15,87
259,76	-28,16
259,969	-7,68
260,179	14,85
260,389	-28,16
260,598	51,71
260,808	-1,54
261,018	-38,4
261,227	49,66
261,437	-13,82
261,647	-46,59
261,856	-19,97
262,066	41,47
262,275	39,42
262,485	-83,45
262,694	-15,87
262,904	8,7
263,114	-5,63
263,323	-114,17
263,533	47,62
263,742	-48,64
263,952	2,56
264,161	-34,3
264,371	-22,02
264,58	8,7
264,79	-71,17
264,999	-1,54
265,209	23,04
265,418	33,28
265,628	16,9
265,837	-24,06
266,047	-69,12
266,256	59,9
266,466	23,04
266,675	0,51
266,884	-73,21
267,094	10,75
267,303	-1,54
267,513	39,42
267,722	154,11
267,931	-40,45
268,141	-15,87
268,35	-50,69
268,559	49,66
268,769	-30,21
268,978	-54,78
269,187	-11,78
269,397	-13,82
269,606	-87,55
269,815	-30,21
270,025	-40,45
270,234	41,47
270,443	-30,21
270,653	23,04
270,862	-42,5
271,071	59,9
271,28	-46,59
271,49	72,19
271,699	-99,84
271,908	55,81
272,117	-46,59
272,327	-15,87
272,536	-7,68
272,745	23,04
272,954	-62,98
273,163	6,66
273,372	4,61
273,582	-118,27
273,791	-32,26
274	-13,82
274,209	45,57
274,418	2,56
274,627	51,71
274,836	-17,92
275,046	10,75
275,255	-50,69
275,464	-1,54
275,673	-73,21
275,882	29,18
276,091	25,09
276,3	33,28
276,509	10,75
276,718	18,94
276,927	-17,92
277,136	76,29
277,345	-36,35
277,554	-81,41
277,763	107,01
277,972	-13,82
278,181	23,04
278,39	-13,82
278,599	-58,88
278,808	-30,21
279,017	70,14
279,226	-73,21
279,435	2,56
279,644	-30,21
279,853	0,51
280,062	-9,73
280,271	-124,41
280,48	-36,35
280,688	-73,21
280,897	47,62
281,106	-52,74
281,315	-52,74
281,524	-13,82
281,733	23,04
281,942	43,52
282,151	-83,45
282,359	-17,92
282,568	-62,98
282,777	16,9
282,986	27,14
283,195	-11,78
283,403	18,94
283,612	-13,82
283,821	2,56
284,03	-77,31
284,238	-56,83
284,447	57,86
284,656	-42,5
284,865	25,09
285,073	6,66
285,282	92,67
285,491	-50,69
285,699	12,8
285,908	-30,21
286,117	10,75
286,325	2,56
286,534	133,63
286,743	-62,98
286,951	18,94
287,16	16,9
287,369	8,7
287,577	-9,73
287,786	-13,82
287,995	-40,45
288,203	-34,3
288,412	33,28
288,62	2,56
288,829	-24,06
289,037	-44,54
289,246	-69,12
289,455	-38,4
289,663	49,66
289,872	143,87
290,08	6,66
290,289	27,14
290,497	-65,02
290,706	31,23
290,914	-9,73
291,123	-71,17
291,331	-38,4
291,54	10,75
291,748	80,38
291,957	0,51
292,165	6,66
292,373	-38,4
292,582	-24,06
292,79	-52,74
292,999	25,09
293,207	23,04
293,415	-32,26
293,624	-50,69
293,832	-30,21
294,041	-13,82
294,249	-73,21
294,457	6,66
294,666	0,51
294,874	-153,09
295,082	-38,4
295,291	51,71
295,499	-75,26
295,707	-50,69
295,915	-40,45
296,124	23,04
296,332	59,9
296,54	-1,54
296,749	43,52
296,957	16,9
297,165	-9,73
297,373	-48,64
297,581	-22,02
297,79	-50,69
297,998	-34,3
298,206	-46,59
298,414	-7,68
298,622	-30,21
298,831	12,8
299,039	-65,02
299,247	25,09
299,455	-30,21
299,663	35,33
299,871	-5,63
300,08	-38,4
300,288	-5,63
300,496	-22,02
300,704	-5,63
300,912	-62,98
301,12	16,9
301,328	-38,4
301,536	-73,21
301,744	-22,02
301,952	49,66
302,16	-83,45
302,368	6,66
302,576	6,66
302,784	78,33
302,992	-36,35
303,2	2,56
303,408	-38,4
303,616	-26,11
303,824	80,38
304,032	49,66
304,24	109,05
304,448	-71,17
304,656	-54,78
304,864	113,15
305,072	-26,11
305,28	31,23
305,488	-13,82
305,696	-50,69
305,904	-24,06
306,111	-134,65
306,319	-22,02
306,527	-5,63
306,735	31,23
306,943	45,57
307,151	-50,69
307,359	-50,69
307,566	14,85
307,774	84,48
307,982	-46,59
308,19	-1,54
308,398	-24,06
308,605	-26,11
308,813	6,66
309,021	18,94
309,229	23,04
309,436	-46,59
309,644	20,99
309,852	35,33
310,06	113,15
310,267	-79,36
310,475	-13,82
310,683	-26,11
310,89	10,75
311,098	59,9
311,306	-32,26
311,513	43,52
311,721	-71,17
311,929	51,71
312,136	2,56
312,344	14,85
312,552	43,52
312,759	-24,06
312,967	61,95
313,174	-7,68
313,382	-15,87
313,589	-34,3
313,797	-1,54
314,005	-54,78
314,212	-46,59
314,42	8,7
314,627	-103,93
314,835	25,09
315,042	-75,26
315,25	-120,32
315,457	-144,89
315,665	-83,45
315,872	51,71
316,08	61,95
316,287	-46,59
316,495	240,12
316,702	10,75
316,909	-7,68
317,117	-19,97
317,324	-15,87
317,532	98,81
317,739	-42,5
317,946	2,56
318,154	-54,78
318,361	-17,92
318,569	18,94
318,776	-17,92
318,983	-83,45
319,191	12,8
319,398	-13,82
319,605	-7,68
319,813	27,14
320,02	-103,93
320,227	-15,87
320,434	2,56
320,642	-26,11
320,849	-62,98
321,056	43,52
321,264	31,23
321,471	10,75
321,678	59,9
321,885	-24,06
322,092	2,56
322,3	-48,64
322,507	-46,59
322,714	-1,54
322,921	-34,3
323,128	-75,26
323,336	0,51
323,543	25,09
323,75	-7,68
323,957	6,66
324,164	84,48
324,371	43,52
324,578	-97,79
324,786	70,14
324,993	-1,54
325,2	53,76
325,407	-108,03
325,614	16,9
325,821	59,9
326,028	109,05
326,235	14,85
326,442	-19,97
326,649	8,7
326,856	-24,06
327,063	-103,93
327,27	-30,21
327,477	33,28
327,684	-79,36
327,891	-30,21
328,098	-54,78
328,305	51,71
328,512	-56,83
328,719	12,8
328,926	43,52
329,133	-77,31
329,34	51,71
329,546	-30,21
329,753	-30,21
329,96	18,94
330,167	27,14
330,374	-26,11
330,581	57,86
330,788	-85,5
330,995	-13,82
331,201	-5,63
331,408	-48,64
331,615	-24,06
331,822	27,14
332,029	-79,36
332,235	-40,45
332,442	-48,64
332,649	-58,88
332,856	-71,17
333,062	-32,26
333,269	-26,11
333,476	4,61
333,683	-77,31
333,889	8,7
334,096	-22,02
334,303	72,19
334,509	-38,4
334,716	43,52
334,923	47,62
335,129	-32,26
335,336	-1,54
335,543	-54,78
335,749	-81,41
335,956	51,71
336,163	-95,74
336,369	18,94
336,576	-7,68
336,782	61,95
336,989	-73,21
337,196	66,05
337,402	-56,83
337,609	-58,88
337,815	-24,06
338,022	12,8
338,228	-1,54
338,435	115,2
338,641	-11,78
338,848	47,62
339,054	29,18
339,261	-46,59
339,467	-42,5
339,674	100,86
339,88	-50,69
340,087	-73,21
340,293	-11,78
340,5	-7,68
340,706	14,85
340,912	-42,5
341,119	-5,63
341,325	35,33
341,532	-62,98
341,738	-60,93
341,944	27,14
342,151	-48,64
342,357	-40,45
342,563	-38,4
342,77	-62,98
342,976	-91,65
343,182	100,86
343,389	35,33
343,595	0,51
343,801	-30,21
344,007	18,94
344,214	-112,13
344,42	-22,02
344,626	23,04
344,832	-50,69
345,039	51,71
345,245	20,99
345,451	-15,87
345,657	59,9
345,864	-134,65
346,07	-56,83
346,276	-5,63
346,482	64
346,688	20,99
346,894	-58,88
347,1	10,75
347,307	-28,16
347,513	45,57
347,719	-83,45
347,925	-22,02
348,131	-79,36
348,337	84,48
348,543	-17,92
348,749	-50,69
348,955	90,62
349,161	-38,4
349,367	41,47
349,573	43,52
349,779	43,52
349,985	-46,59
350,191	-26,11
350,397	-30,21
350,603	-7,68
350,809	-13,82
351,015	6,66
351,221	-17,92
351,427	-38,4
351,633	2,56
351,839	41,47
352,045	2,56
352,251	57,86
352,457	4,61
352,663	14,85
352,869	39,42
353,075	-22,02
353,28	-30,21
353,486	-22,02
353,692	-7,68
353,898	-54,78
354,104	-17,92
354,31	-5,63
354,515	-128,51
354,721	10,75
354,927	-58,88
355,133	14,85
355,339	-75,26
355,544	-13,82
355,75	-26,11
355,956	33,28
356,162	10,75
356,367	-97,79
356,573	-17,92
356,779	-44,54
356,984	47,62
357,19	8,7
357,396	-13,82
357,602	33,28
357,807	-38,4
358,013	-24,06
358,218	27,14
358,424	-48,64
358,63	-101,89
358,835	23,04
359,041	-54,78
359,247	27,14
359,452	-36,35
359,658	-38,4
359,863	-52,74
360,069	76,29
360,274	47,62
360,48	31,23
360,685	35,33
360,891	31,23
361,097	-54,78
361,302	8,7
361,508	53,76
361,713	-56,83
361,918	104,96
362,124	-128,51
362,329	18,94
362,535	-26,11
362,74	-34,3
362,946	-9,73
363,151	18,94
363,357	-15,87
363,562	-52,74
363,767	-67,07
363,973	76,29
364,178	-122,37
364,383	6,66
364,589	39,42
364,794	-17,92
365	20,99
365,205	-5,63
365,41	-62,98
365,615	47,62
365,821	10,75
366,026	27,14
366,231	0,51
366,437	12,8
366,642	-112,13
366,847	92,67
367,052	59,9
367,258	-30,21
367,463	-22,02
367,668	-50,69
367,873	43,52
368,078	86,53
368,284	-24,06
368,489	-26,11
368,694	-11,78
368,899	-9,73
369,104	-54,78
369,309	25,09
369,515	-13,82
369,72	90,62
369,925	-3,58
370,13	-5,63
370,335	23,04
370,54	2,56
370,745	20,99
370,95	-22,02
371,155	49,66
371,36	53,76
371,565	8,7
371,77	-9,73
371,975	-1,54
372,18	90,62
372,385	115,2
372,59	82,43
372,795	-11,78
373	-38,4
373,205	72,19
373,41	43,52
373,615	-24,06
373,82	-75,26
374,025	-79,36
374,23	27,14
374,435	-30,21
374,64	-38,4
374,845	-52,74
375,05	10,75
375,254	-26,11
375,459	27,14
375,664	0,51
375,869	-30,21
376,074	-7,68
376,279	43,52
376,483	6,66
376,688	12,8
376,893	59,9
377,098	-5,63
377,303	6,66
377,507	-46,59
377,712	2,56
377,917	-17,92
378,122	-22,02
378,326	-15,87
378,531	-13,82
378,736	8,7
378,94	-73,21
379,145	18,94
379,35	16,9
379,554	47,62
379,759	47,62
379,964	51,71
380,168	47,62
380,373	-5,63
380,578	88,57
380,782	68,09
380,987	39,42
381,191	-13,82
381,396	14,85
381,601	66,05
381,805	-40,45
382,01	86,53
382,214	92,67
382,419	25,09
382,623	20,99
382,828	-28,16
383,032	59,9
383,237	-103,93
383,441	-38,4
383,646	43,52
383,85	6,66
384,055	37,38
384,259	-62,98
384,464	-81,41
384,668	-95,74
384,872	-5,63
385,077	27,14
385,281	18,94
385,486	-11,78
385,69	49,66
385,894	35,33
386,099	31,23
386,303	-15,87
386,507	129,53
386,712	14,85
386,916	43,52
387,12	-38,4
387,325	88,57
387,529	39,42
387,733	31,23
387,937	25,09
388,142	-7,68
388,346	-38,4
388,55	107,01
388,754	39,42
388,959	59,9
389,163	12,8
389,367	51,71
389,571	8,7
389,775	90,62
389,98	74,24
390,184	41,47
390,388	-52,74
390,592	-34,3
390,796	68,09
391	-46,59
391,204	10,75
391,409	-44,54
391,613	39,42
391,817	-17,92
392,021	59,9
392,225	29,18
392,429	10,75
392,633	-1,54
392,837	2,56
393,041	10,75
393,245	68,09
393,449	-11,78
393,653	-32,26
393,857	55,81
394,061	23,04
394,265	31,23
394,469	86,53
394,673	35,33
394,877	109,05
395,081	154,11
395,285	98,81
395,489	61,95
395,693	82,43
395,896	125,44
396,1	94,72
396,304	59,9
396,508	33,28
396,712	51,71
396,916	-11,78
397,12	107,01
397,323	64
397,527	201,21
397,731	176,64
397,935	150,01
398,139	125,44
398,342	115,2
398,546	82,43
398,75	107,01
398,954	170,49
399,157	193,02
399,361	152,06
399,565	109,05
399,769	188,93
399,972	158,21
400,176	170,49
400,38	141,82
400,583	90,62
400,787	207,36
400,991	158,21
401,194	137,73
401,398	172,54
401,601	168,45
401,805	190,97
402,009	150,01
402,212	176,64
402,416	209,4
402,619	139,77
402,823	186,88
403,026	139,77
403,23	115,2
403,433	299,52
403,637	96,77
403,841	147,97
404,044	168,45
404,247	139,77
404,451	209,4
404,654	158,21
404,858	195,07
405,061	117,25
405,265	199,16
405,468	268,8
405,672	156,16
405,875	266,75
406,078	229,88
406,282	135,68
406,485	164,35
406,689	217,6
406,892	223,74
407,095	145,92
407,299	209,4
407,502	258,56
407,705	207,36
407,909	217,6
408,112	256,51
408,315	272,89
408,518	297,47
408,722	190,97
408,925	182,78
409,128	356,86
409,331	223,74
409,535	293,37
409,738	199,16
409,941	336,38
410,144	258,56
410,347	285,18
410,551	328,19
410,754	276,99
410,957	354,81
411,16	215,55
411,363	342,52
411,566	274,94
411,769	307,71
411,973	330,23
412,176	367,1
412,379	342,52
412,582	289,28
412,785	236,03
412,988	195,07
413,191	287,23
413,394	240,12
413,597	256,51
413,8	256,51
414,003	438,78
414,206	164,35
414,409	279,04
414,612	221,69
414,815	240,12
415,018	264,7
415,221	205,31
415,424	317,95
415,627	281,08
415,83	307,71
416,033	231,93
416,235	344,57
416,438	320
416,641	313,85
416,844	264,7
417,047	238,08
417,25	240,12
417,453	266,75
417,655	231,93
417,858	272,89
418,061	197,12
418,264	297,47
418,467	264,7
418,669	332,28
418,872	330,23
419,075	248,32
419,278	336,38
419,48	305,66
419,683	330,23
419,886	313,85
420,089	320
420,291	338,43
420,494	258,56
420,697	215,55
420,899	322,04
421,102	207,36
421,305	332,28
421,507	299,52
421,71	342,52
421,912	264,7
422,115	178,69
422,318	270,84
422,52	315,9
422,723	279,04
422,925	338,43
423,128	350,71
423,33	340,47
423,533	285,18
423,735	281,08
423,938	260,6
424,14	293,37
424,343	354,81
424,545	379,39
424,748	205,31
424,95	274,94
425,153	264,7
425,355	297,47
425,558	375,29
425,76	336,38
425,962	326,14
426,165	231,93
426,367	301,56
426,57	270,84
426,772	223,74
426,974	358,91
427,177	193,02
427,379	209,4
427,581	432,63
427,784	264,7
427,986	248,32
428,188	373,24
428,39	227,84
428,593	190,97
428,795	315,9
428,997	324,09
429,2	219,64
429,402	299,52
429,604	90,62
429,806	250,36
430,008	289,28
430,211	268,8
430,413	262,65
430,615	270,84
430,817	270,84
431,019	274,94
431,221	281,08
431,423	246,27
431,626	264,7
431,828	346,62
432,03	295,42
432,232	346,62
432,434	449,02
432,636	360,95
432,838	311,8
433,04	326,14
433,242	352,76
433,444	381,43
433,646	303,61
433,848	348,67
434,05	330,23
434,252	322,04
434,454	231,93
434,656	254,46
434,858	309,76
435,06	287,23
435,262	436,73
435,464	367,1
435,666	375,29
435,868	496,12
436,07	369,15
436,271	360,95
436,473	295,42
436,675	344,57
436,877	256,51
437,079	354,81
437,281	342,52
437,482	403,96
437,684	326,14
437,886	322,04
438,088	416,25
438,29	322,04
438,491	328,19
438,693	317,95
438,895	379,39
439,097	426,49
439,298	383,48
439,5	371,19
439,702	330,23
439,903	340,47
440,105	430,59
440,307	455,16
440,508	383,48
440,71	473,59
440,912	436,73
441,113	406,01
441,315	365,05
441,517	340,47
441,718	502,26
441,92	403,96
442,121	485,88
442,323	338,43
442,524	440,83
442,726	363
442,928	377,34
443,129	377,34
443,331	320
443,532	485,88
443,734	320
443,935	512,5
444,136	393,72
444,338	393,72
444,539	416,25
444,741	391,67
444,942	418,3
445,144	469,5
445,345	424,44
445,546	418,3
445,748	363
445,949	406,01
446,151	369,15
446,352	358,91
446,553	461,3
446,755	412,15
446,956	436,73
447,157	475,64
447,359	403,96
447,56	385,53
447,761	416,25
447,962	518,65
448,164	475,64
448,365	434,68
448,566	367,1
448,767	403,96
448,969	524,79
449,17	336,38
449,371	403,96
449,572	403,96
449,773	436,73
449,974	459,26
450,176	406,01
450,377	467,45
450,578	449,02
450,779	451,07
450,98	408,06
451,181	432,63
451,382	395,77
451,583	518,65
451,784	487,93
451,986	330,23
452,187	385,53
452,388	436,73
452,589	451,07
452,79	438,78
452,991	395,77
453,192	412,15
453,393	410,11
453,594	371,19
453,795	346,62
453,995	369,15
454,196	485,88
454,397	387,58
454,598	424,44
454,799	358,91
455	522,74
455,201	330,23
455,402	508,41
455,603	373,24
455,804	467,45
456,004	457,21
456,205	410,11
456,406	414,2
456,607	434,68
456,808	502,26
457,008	313,85
457,209	430,59
457,41	461,3
457,611	418,3
457,811	600,57
458,012	369,15
458,213	410,11
458,414	408,06
458,614	506,36
458,815	395,77
459,016	584,18
459,216	477,69
459,417	475,64
459,618	498,17
459,818	494,07
460,019	502,26
460,22	446,97
460,42	502,26
460,621	494,07
460,821	485,88
461,022	514,55
461,223	453,11
461,423	498,17
461,624	506,36
461,824	485,88
462,025	573,94
462,225	389,63
462,426	563,7
462,626	561,66
462,827	506,36
463,027	514,55
463,228	541,18
463,428	516,6
463,628	508,41
463,829	530,94
464,029	420,35
464,23	512,5
464,43	500,22
464,63	516,6
464,831	473,59
465,031	575,99
465,231	563,7
465,432	522,74
465,632	602,61
465,832	438,78
466,033	430,59
466,233	479,74
466,433	565,75
466,634	518,65
466,834	633,33
467,034	485,88
467,234	514,55
467,435	494,07
467,635	559,61
467,835	485,88
468,035	571,9
468,235	571,9
468,436	532,98
468,636	596,47
468,836	487,93
469,036	608,76
469,236	557,56
469,436	575,99
469,636	625,14
469,836	514,55
470,037	469,5
470,237	537,08
470,437	592,37
470,637	530,94
470,837	608,76
471,037	612,85
471,237	649,72
471,437	584,18
471,637	557,56
471,837	666,1
472,037	637,43
472,237	662,01
472,437	592,37
472,637	723,44
472,837	717,3
473,036	668,15
473,236	731,64
473,436	616,95
473,636	637,43
473,836	657,91
474,036	715,25
474,236	639,48
474,436	666,1
474,635	729,59
474,835	627,19
475,035	786,93
475,235	709,11
475,435	705,01
475,634	696,82
475,834	829,94
476,034	813,56
476,234	715,25
476,433	727,54
476,633	786,93
476,833	688,63
477,033	764,4
477,232	674,29
477,432	717,3
477,632	772,6
477,831	795,12
478,031	854,51
478,231	778,74
478,43	741,88
478,63	719,35
478,829	705,01
479,029	811,51
479,229	780,79
479,428	885,23
479,628	809,46
479,827	756,21
480,027	774,64
480,226	909,81
480,426	770,55
480,625	963,06
480,825	817,65
481,024	928,24
481,224	936,43
481,423	885,23
481,623	893,43
481,822	877,04
482,021	961,01
482,221	963,06
482,42	915,95
482,62	907,76
482,819	877,04
483,018	862,71
483,218	979,44
483,417	905,71
483,616	885,23
483,816	1018,35
484,015	948,72
484,214	907,76
484,414	942,58
484,613	991,73
484,812	874,99
485,011	821,75
485,211	838,13
485,41	895,47
485,609	825,84
485,808	831,99
486,008	965,11
486,207	893,43
486,406	868,85
486,605	934,39
486,804	915,95
487,003	858,61
487,203	965,11
487,402	926,19
487,601	977,39
487,8	969,2
487,999	977,39
488,198	1038,83
488,397	952,82
488,596	1047,02
488,795	991,73
488,994	1085,94
489,193	1001,97
489,392	1090,03
489,591	969,2
489,79	1022,45
489,989	1051,12
490,188	1071,6
490,387	1010,16
490,586	1049,07
490,785	985,58
490,984	975,35
491,183	1026,54
491,382	993,78
491,581	1024,5
491,779	1069,55
491,978	1065,46
492,177	1049,07
492,376	1061,36
492,575	1038,83
492,774	981,49
492,972	1024,5
493,171	1030,64
493,37	1079,79
493,569	1116,65
493,768	1034,74
493,966	1169,9
494,165	1081,84
494,364	1092,08
494,563	1061,36
494,761	1038,83
494,96	1075,7
495,159	1190,38
495,357	1034,74
495,556	1063,41
495,755	1153,52
495,953	1038,83
496,152	1090,03
496,35	1137,13
496,549	1053,17
496,748	1067,5
496,946	1108,46
497,145	1092,08
497,343	1063,41
497,542	977,39
497,74	1100,27
497,939	1051,12
498,137	1130,99
498,336	1133,04
498,534	1135,09
498,733	1040,88
498,931	1079,79
499,13	1044,98
499,328	1024,5
499,527	1106,42
499,725	965,11
499,924	975,35
500,122	877,04
500,32	1047,02
500,519	1077,74
500,717	969,2
500,915	979,44
501,114	969,2
501,312	1008,11
501,51	1032,69
501,709	973,3
501,907	1008,11
502,105	1065,46
502,304	956,91
502,502	1112,56
502,7	1008,11
502,898	961,01
503,097	985,58
503,295	1014,26
503,493	1040,88
503,691	973,3
503,889	948,72
504,088	1034,74
504,286	1096,18
504,484	1122,8
504,682	1010,16
504,88	1047,02
505,078	1114,61
505,276	1079,79
505,474	1022,45
505,672	985,58
505,871	1022,45
506,069	1096,18
506,267	961,01
506,465	936,43
506,663	946,67
506,861	1036,78
507,059	965,11
507,257	1053,17
507,455	1092,08
507,653	1018,35
507,851	1071,6
508,049	958,96
508,246	1036,78
508,444	1096,18
508,642	1008,11
508,84	1098,22
509,038	997,87
509,236	1157,61
509,434	956,91
509,632	1075,7
509,829	1001,97
510,027	1141,23
510,225	1059,31
510,423	1030,64
510,621	1055,22
510,818	1038,83
511,016	1083,89
511,214	1221,1
511,412	1061,36
511,609	1012,21
511,807	997,87
512,005	1020,4
512,203	1100,27
512,4	1057,26
512,598	981,49
512,796	987,63
512,993	989,68
513,191	1042,93
513,389	1040,88
513,586	1141,23
513,784	999,92
513,981	1151,47
514,179	1106,42
514,377	1077,74
514,574	1171,95
514,772	1075,7
514,969	1083,89
515,167	1026,54
515,364	1128,94
515,562	995,82
515,759	1012,21
515,957	973,3
516,154	1010,16
516,352	1051,12
516,549	1042,93
516,746	1026,54
516,944	952,82
517,141	944,63
517,339	1079,79
517,536	1067,5
517,733	952,82
517,931	961,01
518,128	1069,55
518,325	1042,93
518,523	1047,02
518,72	1141,23
518,917	1106,42
519,115	1128,94
519,312	1081,84
519,509	1188,33
519,707	1042,93
519,904	1098,22
520,101	1206,77
520,298	1200,62
520,495	1245,68
520,693	1133,04
520,89	1190,38
521,087	1077,74
521,284	1114,61
521,481	1032,69
521,678	1204,72
521,876	1200,62
522,073	1141,23
522,27	1204,72
522,467	1098,22
522,664	1092,08
522,861	1153,52
523,058	1196,53
523,255	1180,14
523,452	1266,16
523,649	1130,99
523,846	1083,89
524,043	1204,72
524,24	1130,99
524,437	1149,42
524,634	1169,9
524,831	1174
525,028	1135,09
525,225	1083,89
525,422	1124,85
525,619	1096,18
525,816	1073,65
526,013	1147,37
526,209	1106,42
526,406	928,24
526,603	1112,56
526,8	1100,27
526,997	1198,57
527,194	1108,46
527,39	1221,1
527,587	1178,09
527,784	1169,9
527,981	1153,52
528,177	1122,8
528,374	1196,53
528,571	1157,61
528,768	1079,79
528,964	1161,71
529,161	1180,14
529,358	1247,72
529,554	1260,01
529,751	1075,7
529,948	1182,19
530,144	1165,81
530,341	1108,46
530,537	1200,62
530,734	1169,9
530,931	1180,14
531,127	1139,18
531,324	1190,38
531,52	1194,48
531,717	1116,65
531,913	1100,27
532,11	1122,8
532,306	1165,81
532,503	1174
532,699	1196,53
532,896	1214,96
533,092	1143,28
533,289	1137,13
533,485	1833,44
533,682	1169,9
533,878	1214,96
534,074	1145,33
534,271	1247,72
534,467	1245,68
534,664	1145,33
534,86	1227,25
535,056	1169,9
535,253	1180,14
535,449	1133,04
535,645	1149,42
535,841	1092,08
536,038	1167,85
536,234	1081,84
536,43	1223,15
536,626	1145,33
536,823	1284,59
537,019	1202,67
537,215	1174
537,411	1190,38
537,607	1130,99
537,804	1174
538	1124,85
538,196	1188,33
538,392	1112,56
538,588	1083,89
538,784	1108,46
538,98	1194,48
539,176	1122,8
539,373	1264,11
539,569	1063,41
539,765	1145,33
539,961	1169,9
540,157	1192,43
540,353	1077,74
540,549	1221,1
540,745	1137,13
540,941	1157,61
541,137	1090,03
541,333	1247,72
541,528	1061,36
541,724	1161,71
541,92	1249,77
542,116	1163,76
542,312	1165,81
542,508	1165,81
542,704	1190,38
542,9	1182,19
543,096	1149,42
543,291	1292,78
543,487	1225,2
543,683	1221,1
543,879	1294,83
544,075	1292,78
544,27	1286,64
544,466	1157,61
544,662	1296,88
544,858	1272,3
545,053	1307,12
545,249	1272,3
545,445	1296,88
545,64	1278,44
545,836	1157,61
546,032	1233,39
546,227	1196,53
546,423	1325,55
546,619	1241,58
546,814	1257,96
547,01	1264,11
547,205	1270,25
547,401	1378,79
547,597	1276,4
547,792	1174
547,988	1370,6
548,183	1305,07
548,379	1360,36
548,574	1405,42
548,77	1333,74
548,965	1319,4
549,161	1241,58
549,356	1407,47
549,552	1446,38
549,747	1401,32
549,942	1280,49
550,138	1395,18
550,333	1466,86
550,529	1386,99
550,724	1354,22
550,919	1407,47
551,115	1348,08
551,31	1466,86
551,505	1466,86
551,701	1423,85
551,896	1505,77
552,091	1599,98
552,287	1554,92
552,482	1561,06
552,677	1528,3
552,872	1532,39
553,067	1581,54
553,263	1595,88
553,458	1571,3
553,653	1630,7
553,848	1599,98
554,043	1632,74
554,239	1716,71
554,434	1651,17
554,629	1663,46
554,824	1702,37
555,019	1663,46
555,214	1667,56
555,409	1837,54
555,604	1712,61
555,799	1855,97
555,994	1827,3
556,189	1665,51
556,384	1765,86
556,579	1772
556,774	1876,45
556,969	1835,49
557,164	1829,35
557,359	1888,74
557,554	1927,65
557,749	1929,7
557,944	1935,84
558,139	2032,1
558,334	2032,1
558,529	1991,14
558,724	2046,43
558,918	2042,34
559,113	2132,45
559,308	2228,7
559,503	2054,62
559,698	2226,65
559,893	2263,52
560,087	2318,81
560,282	2222,56
560,477	2370,01
560,672	2402,78
560,866	2335,2
561,061	2370,01
561,256	2480,6
561,45	2525,66
561,645	2517,47
561,84	2507,23
562,034	2640,34
562,229	2654,68
562,424	2744,79
562,618	2793,94
562,813	2839
563,008	2679,26
563,202	2957,78
563,397	2859,48
563,591	3041,75
563,786	2961,87
563,98	2839
564,175	3080,66
564,369	3154,38
564,564	3281,36
564,758	3238,35
564,953	3279,31
565,147	3291,6
565,342	3408,33
565,536	3484,11
565,731	3557,83
565,925	3680,71
566,119	3492,3
566,314	3799,49
566,508	3770,82
566,703	3748,29
566,897	3803,59
567,091	3895,75
567,286	4000,19
567,48	4037,06
567,674	4219,33
567,868	4190,66
568,063	4182,46
568,257	4344,25
568,451	4286,91
568,646	4317,63
568,84	4563,39
569,034	4579,77
569,228	4729,27
569,422	4776,38
569,616	4909,49
569,811	4929,97
570,005	5159,35
570,199	5179,82
570,393	5366,19
570,587	5544,36
570,781	5509,55
570,975	5833,13
571,169	5734,82
571,364	5939,62
571,558	6060,45
571,752	6175,14
571,946	6220,19
572,14	6539,68
572,334	6560,16
572,528	6670,75
572,722	6928,79
572,916	7020,95
573,109	7135,64
573,303	7199,12
573,497	7184,79
573,691	7584,14
573,885	7758,22
574,079	7848,33
574,273	8102,28
574,467	8096,13
574,661	8333,7
574,854	8438,14
575,048	8630,65
575,242	8739,19
575,436	8976,76
575,63	9148,79
575,823	9240,95
576,017	9697,64
576,211	9773,42
576,405	10099,05
576,598	10074,47
576,792	10361,19
576,986	10559,84
577,18	10819,93
577,373	11043,16
577,567	11303,25
577,761	11544,91
577,954	11698,51
578,148	11997,51
578,341	12253,51
578,535	12691,77
578,729	12851,52
578,922	13064,5
579,116	13590,83
579,309	13519,15
579,503	14043,43
579,696	14098,73
579,89	14612,77
580,083	14803,23
580,277	15022,36
580,47	15253,78
580,664	15532,31
580,857	15880,46
581,051	16359,69
581,244	16474,37
581,437	17346,81
581,631	17473,78
581,824	17783,02
582,018	18245,87
582,211	18585,83
582,404	18923,74
582,598	19308,76
582,791	20173
582,984	19847,38
583,178	20584,65
583,371	21096,64
583,564	21213,37
583,757	21764,28
583,951	21991,6
584,144	22249,64
584,337	22692,01
584,53	23206,05
584,723	23744,66
584,917	24502,41
585,11	24912
585,303	25815,16
585,496	25735,29
585,689	26445,93
585,882	26753,13
586,075	27209,82
586,268	27592,79
586,462	28950,6
586,655	29057,09
586,848	30462
587,041	30820,39
587,234	31166,5
587,427	31901,72
587,62	32782,35
587,813	33345,54
588,006	34672,62
588,199	34529,27
588,392	35543,01
588,585	35831,77
588,777	36476,88
588,97	37025,74
589,163	37849,02
589,356	38586,29
589,549	39153,58
589,742	39765,92
589,935	40640,4
590,128	41265,03
590,32	42151,8
590,513	42340,22
590,706	43536,23
590,899	43980,64
591,092	44609,37
591,284	45391,69
591,477	46532,41
591,67	46917,43
591,863	46923,57
592,055	47454
592,248	48168,74
592,441	48840,47
592,633	50052,87
592,826	49725,19
593,019	50542,33
593,211	50951,93
593,404	51293,94
593,596	52000,49
593,789	52496,09
593,982	52981,46
594,174	53302,99
594,367	53169,88
594,559	53747,4
594,752	53382,87
594,944	53489,36
595,137	53712,59
595,329	54124,23
595,522	53915,34
595,714	54103,75
595,907	54062,79
596,099	53440,21
596,292	53165,78
596,484	53497,55
596,676	51965,67
596,869	52377,31
597,061	51963,62
597,253	50880,25
597,446	49884,93
597,638	50278,14
597,83	48887,57
598,023	48365,34
598,215	47621,93
598,407	46122,82
598,6	45453,13
598,792	45123,41
598,984	43804,52
599,176	42784,63
599,369	41883,52
599,561	41174,92
599,753	39677,86
599,945	39032,75
600,137	37367,75
600,329	36141,02
600,522	34983,91
600,714	34347
600,906	32952,33
601,098	32313,36
601,29	31221,8
601,482	30099,51
601,674	29352
601,866	27867,22
602,058	26691,69
602,25	26151,02
602,442	25223,3
602,634	24277,13
602,826	23296,16
603,018	22360,23
603,21	21483,7
603,402	20973,76
603,594	19970,26
603,786	19589,33
603,978	18692,32
604,17	18163,95
604,362	17213,69
604,554	16795,9
604,745	16220,42
604,937	15786,26
605,129	15120,67
605,321	14240,04
605,513	14029,1
605,704	13568,3
605,896	12939,58
606,088	12577,09
606,28	12030,28
606,471	12005,7
606,663	11458,9
606,855	10895,71
607,047	10647,9
607,238	10449,25
607,43	9922,92
607,622	9570,67
607,813	9083,25
608,005	8946,04
608,197	8595,84
608,388	8454,53
608,58	7963,01
608,771	7858,57
608,963	7575,95
609,154	7444,88
609,346	6814,1
609,537	7018,9
609,729	6564,25
609,921	6365,6
610,112	6099,36
610,303	5931,43
610,495	5570,99
610,686	5534,12
610,878	5335,47
611,069	5292,46
611,261	4950,45
611,452	4659,64
611,643	4557,24
611,835	4508,09
612,026	4258,24
612,217	4272,57
612,409	4125,12
612,6	3981,76
612,791	3910,08
612,983	3637,7
613,174	3643,85
613,365	3508,68
613,557	3387,85
613,748	3209,68
613,939	3113,42
614,13	2976,21
614,321	3056,08
614,513	3000,79
614,704	2906,58
614,895	2804,18
615,086	2738,65
615,277	2550,23
615,468	2492,89
615,659	2599,38
615,851	2492,89
616,042	2398,68
616,233	2300,38
616,424	2132,45
616,615	2187,74
616,806	2009,57
616,997	1989,09
617,188	1980,9
617,379	2005,47
617,57	2058,72
617,761	1808,87
617,952	1896,93
618,143	1767,91
618,334	1774,05
618,524	1722,85
618,715	1763,81
618,906	1712,61
619,097	1704,42
619,288	1647,08
619,479	1712,61
619,67	1427,95
619,86	1563,11
620,051	1448,43
620,242	1518,06
620,433	1376,75
620,624	1458,67
620,814	1374,7
621,005	1358,32
621,196	1286,64
621,386	1358,32
621,577	1223,15
621,768	1288,68
621,958	1341,93
622,149	1237,49
622,34	1309,16
622,53	1212,91
622,721	1155,57
622,912	1122,8
623,102	1112,56
623,293	1178,09
623,483	1116,65
623,674	1116,65
623,864	1090,03
624,055	1049,07
624,245	1055,22
624,436	975,35
624,626	1069,55
624,817	987,63
625,007	981,49
625,198	1018,35
625,388	887,28
625,579	1102,32
625,769	1008,11
625,959	1040,88
626,15	883,19
626,34	989,68
626,531	1014,26
626,721	944,63
626,911	821,75
627,101	883,19
627,292	846,32
627,482	883,19
627,672	815,6
627,863	836,08
628,053	956,91
628,243	924,15
628,433	780,79
628,623	874,99
628,814	831,99
629,004	825,84
629,194	817,65
629,384	862,71
629,574	838,13
629,764	819,7
629,955	879,09
630,145	883,19
630,335	772,6
630,525	715,25
630,715	752,12
630,905	797,17
631,095	721,4
631,285	762,36
631,475	805,36
631,665	893,43
631,855	793,08
632,045	612,85
632,235	778,74
632,425	729,59
632,615	721,4
632,805	735,73
632,994	731,64
633,184	819,7
633,374	829,94
633,564	762,36
633,754	784,88
633,944	780,79
634,133	641,53
634,323	745,97
634,513	698,87
634,703	799,22
634,893	698,87
635,082	754,16
635,272	680,44
635,462	717,3
635,651	651,77
635,841	666,1
636,031	696,82
636,221	696,82
636,41	674,29
636,6	702,97
636,789	657,91
636,979	692,73
637,169	682,49
637,358	647,67
637,548	700,92
637,737	674,29
637,927	614,9
638,116	666,1
638,306	614,9
638,495	582,14
638,685	696,82
638,874	719,35
639,064	672,25
639,253	713,21
639,443	662,01
639,632	614,9
639,822	555,51
640,011	610,81
640,2	637,43
640,39	696,82
640,579	639,48
640,768	586,23
640,958	641,53
641,147	584,18
641,336	639,48
641,526	559,61
641,715	543,22
641,904	696,82
642,093	565,75
642,283	664,05
642,472	690,68
642,661	575,99
642,85	676,34
643,039	608,76
643,228	692,73
643,418	657,91
643,607	629,24
643,796	647,67
643,985	553,46
644,174	662,01
644,363	713,21
644,552	649,72
644,741	541,18
644,93	608,76
645,119	647,67
645,308	532,98
645,497	571,9
645,686	594,42
645,875	549,37
646,064	543,22
646,253	541,18
646,442	612,85
646,631	504,31
646,82	623,09
647,009	563,7
647,198	555,51
647,387	584,18
647,575	526,84
647,764	1026,54
647,953	528,89
648,142	485,88
648,331	555,51
648,519	545,27
648,708	586,23
648,897	502,26
649,086	539,13
649,274	563,7
649,463	494,07
649,652	614,9
649,84	563,7
650,029	477,69
650,218	569,85
650,406	518,65
650,595	510,46
650,784	633,33
650,972	580,09
651,161	600,57
651,349	604,66
651,538	512,5
651,726	537,08
651,915	543,22
652,104	498,17
652,292	563,7
652,481	573,94
652,669	631,29
652,857	475,64
653,046	535,03
653,234	465,4
653,423	547,32
653,611	551,42
653,8	522,74
653,988	543,22
654,176	424,44
654,365	391,67
654,553	553,46
654,741	477,69
654,93	430,59
655,118	496,12
655,306	444,92
655,494	449,02
655,683	504,31
655,871	479,74
656,059	559,61
656,247	434,68
656,436	526,84
656,624	489,98
656,812	498,17
657	463,35
657,188	539,13
657,376	481,78
657,564	455,16
657,753	481,78
657,941	510,46
658,129	481,78
658,317	541,18
658,505	383,48
658,693	479,74
658,881	467,45
659,069	451,07
659,257	535,03
659,445	510,46
659,633	545,27
659,821	467,45
660,009	494,07
660,197	508,41
660,384	455,16
660,572	621,05
660,76	494,07
660,948	479,74
661,136	567,8
661,324	528,89
661,512	567,8
661,699	469,5
661,887	580,09
662,075	522,74
662,263	510,46
662,451	608,76
662,638	500,22
662,826	510,46
663,014	516,6
663,201	500,22
663,389	428,54
663,577	432,63
663,764	575,99
663,952	446,97
664,14	494,07
664,327	479,74
664,515	502,26
664,702	528,89
664,89	532,98
665,078	506,36
665,265	492,02
665,453	535,03
665,64	467,45
665,828	494,07
666,015	451,07
666,203	532,98
666,39	543,22
666,578	471,54
666,765	428,54
666,952	551,42
667,14	473,59
667,327	487,93
667,515	500,22
667,702	453,11
667,889	471,54
668,077	498,17
668,264	584,18
668,451	473,59
668,638	459,26
668,826	410,11
669,013	430,59
669,2	442,87
669,388	543,22
669,575	485,88
669,762	403,96
669,949	510,46
670,136	1026,54
670,323	489,98
670,511	455,16
670,698	453,11
670,885	453,11
671,072	506,36
671,259	494,07
671,446	518,65
671,633	422,39
671,82	469,5
672,007	385,53
672,194	545,27
672,381	449,02
672,568	508,41
672,755	465,4
672,942	428,54
673,129	399,87
673,316	408,06
673,503	565,75
673,69	451,07
673,877	434,68
674,064	479,74
674,251	313,85
674,437	483,83
674,624	455,16
674,811	494,07
674,998	475,64
675,185	444,92
675,372	477,69
675,558	399,87
675,745	475,64
675,932	393,72
676,119	408,06
676,305	424,44
676,492	510,46
676,679	418,3
676,865	436,73
677,052	461,3
677,239	397,82
677,425	416,25
677,612	412,15
677,798	371,19
677,985	424,44
678,172	414,2
678,358	440,83
678,545	358,91
678,731	401,91
678,918	420,35
679,104	424,44
679,291	565,75
679,477	403,96
679,664	401,91
679,85	371,19
680,036	412,15
680,223	428,54
680,409	379,39
680,596	408,06
680,782	516,6
680,968	459,26
681,155	365,05
681,341	354,81
681,527	387,58
681,714	391,67
681,9	352,76
682,086	442,87
682,272	356,86
682,459	395,77
682,645	453,11
682,831	416,25
683,017	483,83
683,204	535,03
683,39	410,11
683,576	489,98
683,762	317,95
683,948	399,87
684,134	330,23
684,32	356,86
684,506	344,57
684,693	420,35
684,879	287,23
685,065	289,28
685,251	256,51
685,437	346,62
685,623	289,28
685,809	250,36
685,995	303,61
686,181	354,81
686,366	307,71
686,552	240,12
686,738	279,04
686,924	297,47
687,11	270,84
687,296	295,42
687,482	320
687,668	276,99
687,853	250,36
688,039	289,28
688,225	246,27
688,411	195,07
688,597	334,33
688,782	346,62
688,968	268,8
689,154	297,47
689,34	326,14
689,525	375,29
689,711	313,85
689,897	377,34
690,082	262,65
690,268	342,52
690,454	342,52
690,639	311,8
690,825	383,48
691,01	342,52
691,196	360,95
691,381	320
691,567	336,38
691,753	281,08
691,938	305,66
692,124	279,04
692,309	311,8
692,494	227,84
692,68	320
692,865	322,04
693,051	238,08
693,236	305,66
693,422	264,7
693,607	219,64
693,792	231,93
693,978	215,55
694,163	281,08
694,348	346,62
694,534	229,88
694,719	305,66
694,904	301,56
695,089	369,15
695,275	313,85
695,46	311,8
695,645	348,67
695,83	291,32
696,016	293,37
696,201	211,45
696,386	231,93
696,571	412,15
696,756	285,18
696,941	268,8
697,126	328,19
697,311	272,89
697,497	328,19
697,682	287,23
697,867	418,3
698,052	240,12
698,237	317,95
698,422	182,78
698,607	406,01
698,792	313,85
698,977	256,51
699,162	326,14
699,347	379,39
699,531	279,04
699,716	272,89
699,901	227,84
700,086	279,04
700,271	215,55
700,456	410,11
700,641	225,79
700,825	240,12
701,01	252,41
701,195	346,62
701,38	276,99
701,565	297,47
701,749	260,6
701,934	227,84
702,119	330,23
702,303	281,08
702,488	320
702,673	276,99
702,857	240,12
703,042	311,8
703,227	344,57
703,411	305,66
703,596	403,96
703,78	262,65
703,965	266,75
704,15	252,41
704,334	303,61
704,519	244,22
704,703	256,51
704,888	322,04
705,072	229,88
705,257	207,36
705,441	240,12
705,625	297,47
705,81	305,66
705,994	317,95
706,179	256,51
706,363	244,22
706,547	307,71
706,732	367,1
706,916	240,12
707,1	244,22
707,285	264,7
707,469	328,19
707,653	289,28
707,837	207,36
708,022	242,17
708,206	369,15
708,39	242,17
708,574	274,94
708,759	344,57
708,943	238,08
709,127	262,65
709,311	365,05
709,495	240,12
709,679	281,08
709,863	215,55
710,047	408,06
710,231	252,41
710,415	295,42
710,6	285,18
710,784	256,51
710,968	272,89
711,152	227,84
711,336	207,36
711,519	205,31
711,703	315,9
711,887	215,55
712,071	176,64
712,255	248,32
712,439	336,38
712,623	287,23
712,807	256,51
712,991	197,12
713,174	219,64
713,358	211,45
713,542	254,46
713,726	297,47
713,91	276,99
714,093	305,66
714,277	180,73
714,461	254,46
714,645	150,01
714,828	190,97
715,012	125,44
715,196	158,21
715,379	207,36
715,563	217,6
715,747	143,87
715,93	172,54
716,114	158,21
716,297	197,12
716,481	158,21
716,664	195,07
716,848	174,59
717,031	129,53
717,215	88,57
717,398	102,91
717,582	109,05
717,765	199,16
717,949	133,63
718,132	115,2
718,316	76,29
718,499	88,57
718,682	137,73
718,866	92,67
719,049	201,21
719,233	82,43
719,416	145,92
719,599	207,36
719,782	203,26
719,966	125,44
720,149	215,55
720,332	166,4
720,515	102,91
720,699	199,16
720,882	223,74
721,065	111,1
721,248	252,41
721,431	215,55
721,615	199,16
721,798	211,45
721,981	92,67
722,164	94,72
722,347	109,05
722,53	168,45
722,713	137,73
722,896	84,48
723,079	119,29
723,262	129,53
723,445	238,08
723,628	76,29
723,811	139,77
723,994	66,05
724,177	139,77
724,36	147,97
724,543	147,97
724,726	137,73
724,909	221,69
725,091	203,26
725,274	145,92
725,457	109,05
725,64	168,45
725,823	80,38
726,006	162,3
726,188	133,63
726,371	227,84
726,554	133,63
726,737	115,2
726,919	100,86
727,102	182,78
727,285	158,21
727,467	113,15
727,65	147,97
727,833	131,58
728,015	145,92
728,198	43,52
728,38	170,49
728,563	156,16
728,746	94,72
728,928	131,58
729,111	188,93
729,293	125,44
729,476	188,93
729,658	205,31
729,841	209,4
730,023	264,7
730,205	20,99
730,388	154,11
730,57	223,74
730,753	154,11
730,935	141,82
731,117	207,36
731,3	68,09
731,482	184,83
731,664	205,31
731,847	203,26
732,029	158,21
732,211	145,92
732,394	109,05
732,576	197,12
732,758	279,04
732,94	133,63
733,122	190,97
733,305	195,07
733,487	221,69
733,669	166,4
733,851	199,16
734,033	184,83
734,215	213,5
734,397	219,64
734,58	203,26
734,762	158,21
734,944	174,59
735,126	135,68
735,308	219,64
735,49	137,73
735,672	158,21
735,854	133,63
736,036	158,21
736,218	217,6
736,399	121,34
736,581	133,63
736,763	76,29
736,945	211,45
737,127	125,44
737,309	301,56
737,491	236,03
737,672	147,97
737,854	182,78
738,036	133,63
738,218	133,63
738,4	158,21
738,581	264,7
738,763	209,4
738,945	193,02
739,127	190,97
739,308	182,78
739,49	223,74
739,672	156,16
739,853	207,36
740,035	203,26
740,216	215,55
740,398	180,73
740,58	104,96
740,761	195,07
740,943	195,07
741,124	195,07
741,306	139,77
741,487	141,82
741,669	293,37
741,85	207,36
742,032	289,28
742,213	152,06
742,394	205,31
742,576	197,12
742,757	233,98
742,939	213,5
743,12	158,21
743,301	182,78
743,483	174,59
743,664	141,82
743,845	131,58
744,027	258,56
744,208	172,54
744,389	195,07
744,57	98,81
744,752	264,7
744,933	213,5
745,114	158,21
745,295	147,97
745,476	174,59
745,657	174,59
745,839	104,96
746,02	227,84
746,201	225,79
746,382	193,02
746,563	305,66
746,744	215,55
746,925	188,93
747,106	170,49
747,287	260,6
747,468	199,16
747,649	268,8
747,83	190,97
748,011	184,83
748,192	154,11
748,373	168,45
748,554	117,25
748,735	193,02
748,915	174,59
749,096	199,16
749,277	182,78
749,458	223,74
749,639	223,74
749,82	162,3
750	211,45
750,181	248,32
750,362	172,54
750,543	236,03
750,723	199,16
750,904	156,16
751,085	100,86
751,265	100,86
751,446	207,36
751,627	170,49
751,807	221,69
751,988	131,58
752,169	215,55
752,349	129,53
752,53	205,31
752,71	113,15
752,891	176,64
753,071	172,54
753,252	182,78
753,432	156,16
753,613	129,53
753,793	211,45
753,974	207,36
754,154	231,93
754,334	205,31
754,515	139,77
754,695	219,64
754,876	152,06
755,056	276,99
755,236	150,01
755,417	205,31
755,597	178,69
755,777	172,54
755,957	188,93
756,138	168,45
756,318	104,96
756,498	211,45
756,678	209,4
756,859	174,59
757,039	107,01
757,219	215,55
757,399	51,71
757,579	55,81
757,759	127,49
757,939	90,62
758,119	154,11
758,3	145,92
758,48	107,01
758,66	16,9
758,84	-32,26
759,02	-19,97
759,2	4,61
759,38	37,38
759,56	45,57
759,74	-5,63
759,919	-30,21
760,099	86,53
760,279	37,38
760,459	72,19
760,639	43,52
760,819	74,24
760,999	10,75
761,178	-30,21
761,358	98,81
761,538	35,33
761,718	-5,63
761,898	59,9
762,077	8,7
762,257	49,66
762,437	90,62
762,616	80,38
762,796	84,48
762,976	2,56
763,155	57,86
763,335	70,14
763,515	80,38
763,694	35,33
763,874	-5,63
764,053	51,71
764,233	145,92
764,413	68,09
764,592	51,71
764,772	178,69
764,951	141,82
765,131	23,04
765,31	121,34
765,489	168,45
765,669	90,62
765,848	129,53
766,028	137,73
766,207	35,33
766,386	141,82
766,566	131,58
766,745	166,4
766,924	139,77
767,104	184,83
767,283	74,24
767,462	158,21
767,642	139,77
767,821	125,44
768	31,23
768,179	107,01
768,358	115,2
768,538	100,86
768,717	61,95
768,896	170,49
769,075	158,21
769,254	59,9
769,433	143,87
769,612	154,11
769,791	107,01
769,97	145,92
770,149	186,88
770,328	82,43
770,507	174,59
770,686	84,48
770,865	147,97
771,044	193,02
771,223	96,77
771,402	131,58
771,581	100,86
771,76	74,24
771,939	111,1
772,118	49,66
772,297	117,25
772,475	158,21
772,654	113,15
772,833	131,58
773,012	211,45
773,191	100,86
773,369	174,59
773,548	96,77
773,727	66,05
773,906	190,97
774,084	145,92
774,263	166,4
774,442	125,44
774,62	100,86
774,799	80,38
774,977	90,62
775,156	131,58
775,335	150,01
775,513	100,86
775,692	133,63
775,87	190,97
776,049	113,15
776,227	66,05
776,406	125,44
776,584	150,01
776,763	139,77
776,941	41,47
777,119	55,81
777,298	82,43
777,476	137,73
777,655	49,66
777,833	88,57
778,011	193,02
778,19	137,73
778,368	109,05
778,546	129,53
778,725	84,48
778,903	107,01
779,081	-22,02
779,259	100,86
779,437	92,67
779,616	84,48
779,794	96,77
779,972	207,36
780,15	82,43
780,328	82,43
780,506	145,92
780,685	109,05
780,863	37,38
781,041	59,9
781,219	68,09
781,397	170,49
781,575	20,99
781,753	119,29
781,931	107,01
782,109	86,53
782,287	33,28
782,465	117,25
782,643	96,77
782,82	135,68
782,998	133,63
783,176	39,42
783,354	104,96
783,532	115,2
783,71	76,29
783,888	141,82
784,065	82,43
784,243	35,33
784,421	115,2
784,599	139,77
784,776	47,62
784,954	94,72
785,132	76,29
785,31	59,9
785,487	113,15
785,665	66,05
785,842	123,39
786,02	133,63
786,198	51,71
786,375	23,04
786,553	-1,54
786,73	64
786,908	16,9
787,085	0,51
787,263	98,81
787,44	180,73
787,618	182,78
787,795	33,28
787,973	10,75
788,15	49,66
788,328	57,86
788,505	109,05
788,682	33,28
788,86	51,71
789,037	74,24
789,215	115,2
789,392	-7,68
789,569	158,21
789,746	102,91
789,924	96,77
790,101	131,58
790,278	135,68
790,455	76,29
790,633	82,43
790,81	90,62
790,987	16,9
791,164	31,23
791,341	41,47
791,518	31,23
791,695	76,29
791,873	51,71
792,05	51,71
792,227	-46,59
792,404	72,19
792,581	-11,78
792,758	137,73
792,935	-58,88
793,112	64
793,289	59,9
793,466	49,66
793,643	-34,3
793,82	2,56
793,996	31,23
794,173	64
794,35	27,14
794,527	68,09
794,704	66,05
794,881	-15,87
795,057	41,47
795,234	45,57
795,411	76,29
795,588	47,62
795,765	35,33
795,941	137,73
796,118	76,29
796,295	145,92
796,471	16,9
796,648	-42,5
796,825	88,57
797,001	33,28
797,178	35,33
797,354	154,11
797,531	35,33
797,708	90,62
797,884	104,96
798,061	16,9
798,237	27,14
798,414	-11,78
798,59	51,71
798,767	18,94
798,943	57,86
799,119	104,96
799,296	-5,63
799,472	66,05
799,649	49,66
799,825	-11,78
800,001	-13,82
800,178	29,18
800,354	68,09
800,53	49,66
800,707	18,94
800,883	2,56
801,059	27,14
801,235	117,25
801,411	49,66
801,588	-38,4
801,764	86,53
801,94	-52,74
802,116	90,62
802,292	29,18
802,468	27,14
802,645	55,81
802,821	27,14
802,997	35,33
803,173	12,8
803,349	43,52
803,525	18,94
803,701	72,19
803,877	-15,87
804,053	35,33
804,229	68,09
804,405	129,53
804,581	31,23
804,756	68,09
804,932	-46,59
805,108	80,38
805,284	16,9
805,46	72,19
805,636	37,38
805,812	-5,63
805,987	49,66
806,163	59,9
806,339	162,3
806,515	14,85
806,69	-40,45
806,866	68,09
807,042	68,09
807,217	68,09
807,393	66,05
807,569	31,23
807,744	27,14
807,92	158,21
808,096	29,18
808,271	-26,11
808,447	47,62
808,622	84,48
808,798	41,47
808,973	10,75
809,149	-26,11
809,324	33,28
809,5	2,56
809,675	-17,92
809,851	43,52
810,026	57,86
810,201	53,76
810,377	0,51
810,552	2,56
810,728	31,23
810,903	66,05
811,078	74,24
811,253	51,71
811,429	-11,78
811,604	-54,78
811,779	47,62
811,955	35,33
812,13	23,04
812,305	14,85
812,48	-3,58
812,655	96,77
812,83	98,81
813,006	-38,4
813,181	53,76
813,356	6,66
813,531	12,8
813,706	29,18
813,881	-36,35
814,056	57,86
814,231	39,42
814,406	41,47
814,581	-30,21
814,756	-38,4
814,931	-30,21
815,106	111,1
815,281	-1,54
815,456	-22,02
815,631	41,47
815,805	-30,21
815,98	-30,21
816,155	-67,07
816,33	31,23
816,505	-30,21
816,68	33,28
816,854	-24,06
817,029	-5,63
817,204	-34,3
817,379	-26,11
817,553	18,94
817,728	-34,3
817,903	8,7
818,077	72,19
818,252	45,57
818,427	35,33
818,601	168,45
818,776	18,94
818,95	-44,54
819,125	45,57
819,299	16,9
819,474	29,18
819,648	39,42
819,823	18,94
819,997	64
820,172	-42,5
820,346	53,76
820,521	-26,11
820,695	-48,64
820,87	-1,54
821,044	-60,93
821,218	23,04
821,393	2,56
821,567	-30,21
821,741	-30,21
821,916	20,99
822,09	29,18
822,264	84,48
822,438	-5,63
822,613	0,51
822,787	39,42
822,961	-13,82
823,135	57,86
823,309	-5,63
823,483	-50,69
823,658	20,99
823,832	49,66
824,006	-71,17
824,18	16,9
824,354	51,71
824,528	-30,21
824,702	4,61
824,876	-5,63
825,05	86,53
825,224	49,66
825,398	0,51
825,572	-50,69
825,746	27,14
825,92	66,05
826,093	14,85
826,267	64
826,441	8,7
826,615	92,67
826,789	72,19
826,963	90,62
827,136	59,9
827,31	4,61
827,484	-28,16
827,658	27,14
827,831	2,56
828,005	-24,06
828,179	-7,68
828,353	-5,63
828,526	2,56
828,7	-17,92
828,873	2,56
829,047	18,94
829,221	74,24
829,394	-5,63
829,568	-17,92
829,741	-32,26
829,915	16,9
830,088	2,56
830,262	68,09
830,435	-34,3
830,609	2,56
830,782	-26,11
830,956	-15,87
831,129	33,28
831,302	2,56
831,476	12,8
831,649	-32,26
831,822	-34,3
831,996	47,62
832,169	57,86
832,342	-17,92
832,516	88,57
832,689	14,85
832,862	45,57
833,035	102,91
833,209	55,81
833,382	12,8
833,555	-9,73
833,728	-46,59
833,901	-103,93
834,074	20,99
834,247	-17,92
834,42	18,94
834,594	-52,74
834,767	59,9
834,94	43,52
835,113	27,14
835,286	-42,5
835,459	55,81
835,632	12,8
835,805	-24,06
835,977	66,05
836,15	47,62
836,323	14,85
836,496	-3,58
836,669	-40,45
836,842	-9,73
837,015	88,57
837,188	-30,21
837,36	31,23
837,533	10,75
837,706	-9,73
837,879	27,14
838,051	-54,78
838,224	39,42
838,397	-11,78
838,569	8,7
838,742	-62,98
838,915	-58,88
839,087	53,76
839,26	68,09
839,433	-7,68
839,605	86,53
839,778	-97,79
839,95	68,09
840,123	-24,06
840,295	31,23
840,468	-24,06
840,64	18,94
840,813	-7,68
840,985	10,75
841,158	-32,26
841,33	6,66
841,502	16,9
841,675	-15,87
841,847	53,76
842,019	27,14
842,192	14,85
842,364	29,18
842,536	2,56
842,709	0,51
842,881	-22,02
843,053	-13,82
843,225	-9,73
843,398	-32,26
843,57	59,9
843,742	-32,26
843,914	51,71
844,086	47,62
844,258	-79,36
844,43	-24,06
844,602	82,43
844,775	0,51
844,947	18,94
845,119	-1,54
845,291	14,85
845,463	111,1
845,635	-44,54
845,807	41,47
845,979	43,52
846,15	43,52
846,322	18,94
846,494	-38,4
846,666	-13,82
846,838	12,8
847,01	-3,58
847,182	0,51
847,354	39,42
847,525	49,66
847,697	-62,98
847,869	39,42
848,041	-30,21
848,212	107,01
848,384	18,94
848,556	-7,68
848,727	41,47
848,899	-22,02
849,071	35,33
849,242	59,9
849,414	82,43
849,585	31,23
849,757	12,8
849,929	37,38
850,1	-19,97
850,272	27,14
850,443	43,52
850,615	92,67
850,786	8,7
850,958	-62,98
851,129	14,85
851,3	-7,68
851,472	-1,54
851,643	43,52
851,815	18,94
851,986	6,66
852,157	-56,83
852,329	117,25
852,5	-56,83
852,671	41,47
852,842	-3,58
853,014	-26,11
853,185	16,9
853,356	-30,21
853,527	-15,87
853,698	-7,68
853,87	-46,59
854,041	92,67
854,212	-52,74
854,383	76,29
854,554	-101,89
854,725	104,96
854,896	-7,68
855,067	90,62
855,238	-50,69
855,409	-26,11
855,58	39,42
855,751	57,86
855,922	-9,73
856,093	119,29
856,264	-54,78
856,435	29,18
856,606	47,62
856,777	-5,63
856,948	0,51
857,118	-65,02
857,289	16,9
857,46	55,81
857,631	8,7
857,802	2,56
857,972	18,94
858,143	10,75
858,314	-48,64
858,484	-38,4
858,655	2,56
858,826	-1,54
858,996	-7,68
859,167	51,71
859,338	4,61
859,508	-17,92
859,679	31,23
859,849	-46,59
860,02	8,7
860,19	-46,59
860,361	37,38
860,531	-7,68
860,702	119,29
860,872	80,38
861,043	-95,74
861,213	18,94
861,384	-46,59
861,554	-24,06
861,724	-5,63
861,895	-22,02
862,065	0,51
862,235	29,18
862,406	-11,78
862,576	12,8
862,746	41,47
862,916	6,66
863,087	23,04
863,257	4,61
863,427	-54,78
863,597	51,71
863,767	55,81
863,937	-71,17
864,108	100,86
864,278	35,33
864,448	68,09
864,618	82,43
864,788	-48,64
864,958	-3,58
865,128	-50,69
865,298	-11,78
865,468	-13,82
865,638	-58,88
865,808	23,04
865,978	117,25
866,148	-79,36
866,318	25,09
866,487	-1,54
866,657	-52,74
866,827	-34,3
866,997	10,75
867,167	53,76
867,337	14,85
867,506	-5,63
867,676	-5,63
867,846	18,94
868,016	-15,87
868,185	-81,41
868,355	45,57
868,525	41,47
868,694	-15,87
868,864	27,14
869,034	16,9
869,203	35,33
869,373	59,9
869,542	57,86
869,712	-1,54
869,881	27,14
870,051	2,56
870,22	61,95
870,39	-22,02
870,559	-22,02
870,729	-91,65
870,898	-30,21
871,068	23,04
871,237	-13,82
871,406	-73,21
871,576	18,94
871,745	-11,78
871,914	-36,35
872,084	-1,54
872,253	23,04
872,422	-26,11
872,591	23,04
872,761	-56,83
872,93	276,99
873,099	-71,17
873,268	10,75
873,437	-26,11
873,607	2,56
873,776	16,9
873,945	-5,63
874,114	-71,17
874,283	-32,26
874,452	33,28
874,621	-22,02
874,79	41,47
874,959	-3,58
875,128	-101,89
875,297	-7,68
875,466	37,38
875,635	6,66
875,804	35,33
875,973	-120,32
876,142	-1,54
876,31	-50,69
876,479	-3,58
876,648	33,28
876,817	-83,45
876,986	55,81
877,155	33,28
877,323	-15,87
877,492	10,75
877,661	96,77
877,829	-58,88
877,998	-13,82
878,167	-13,82
878,335	-75,26
878,504	-1,54
878,673	-15,87
878,841	-46,59
879,01	0,51
879,178	41,47
879,347	-48,64
879,515	16,9
879,684	16,9
879,852	-62,98
880,021	-13,82
880,189	-58,88
880,358	-1,54
880,526	100,86
880,695	-83,45
880,863	-7,68
881,031	39,42
881,2	-38,4
881,368	-1,54
881,536	117,25
881,705	-3,58
881,873	-9,73
882,041	-50,69
882,21	-30,21
882,378	6,66
882,546	-13,82
882,714	-30,21
882,882	-15,87
883,05	49,66
883,219	6,66
883,387	43,52
883,555	14,85
883,723	-58,88
883,891	-67,07
884,059	-48,64
884,227	20,99
884,395	-36,35
884,563	-11,78
884,731	-11,78
884,899	-22,02
885,067	-22,02
885,235	-36,35
885,403	43,52
885,571	33,28
885,739	-38,4
