Data from USB4F035431__7__14-13-37-720.txt Node

Date: Wed Feb 12 14:13:37 CET 2025
User: Versuch 234
Spectrometer: USB4F03543
Trigger mode: 4
Integration Time (sec): 1,000000E-1
Scans to average: 1
Electric dark correction enabled: true
Nonlinearity correction enabled: false
Boxcar width: 0
XAxis mode: Wavelengths
Number of Pixels in Spectrum: 3648
>>>>>Begin Spectral Data<<<<<
179,969	-160,42
180,181	-160,42
180,394	-160,42
180,606	-252,58
180,819	-193,19
181,031	30,04
181,243	40,28
181,456	-31,4
181,668	95,57
181,88	42,32
182,093	1,37
182,305	-58,03
182,518	-62,12
182,73	-19,11
182,942	36,18
183,155	11,61
183,367	-86,7
183,579	-2,73
183,791	-12,97
184,004	-103,08
184,216	-6,83
184,428	-2,73
184,641	-53,93
184,853	-17,07
185,065	-88,75
185,277	-31,4
185,49	11,61
185,702	-78,51
185,914	-51,88
186,126	-78,51
186,338	21,85
186,551	-53,93
186,763	-10,92
186,975	-62,12
187,187	-82,6
187,399	-78,51
187,612	-53,93
187,824	-8,87
188,036	-0,68
188,248	-25,26
188,46	1,37
188,672	-68,27
188,885	-60,07
189,097	46,42
189,309	-45,74
189,521	-12,97
189,733	-66,22
189,945	15,7
190,157	-6,83
190,369	-39,59
190,581	-66,22
190,794	36,18
191,006	-58,03
191,218	23,89
191,43	21,85
191,642	-53,93
191,854	-58,03
192,066	75,09
192,278	56,66
192,49	-41,64
192,702	-90,79
192,914	-12,97
193,126	-47,79
193,338	-49,83
193,55	-76,46
193,762	27,99
193,974	-94,89
194,186	-62,12
194,398	1,37
194,61	-31,4
194,822	-41,64
195,034	-29,35
195,246	50,52
195,457	-53,93
195,669	60,76
195,881	-29,35
196,093	-98,99
196,305	71
196,517	-45,74
196,729	17,75
196,941	-39,59
197,153	44,37
197,365	99,67
197,576	-105,13
197,788	-41,64
198	27,99
198,212	17,75
198,424	7,51
198,636	-68,27
198,847	-111,27
199,059	-4,78
199,271	-45,74
199,483	-60,07
199,695	-27,31
199,906	-17,07
200,118	-119,46
200,33	36,18
200,542	326,99
200,753	-45,74
200,965	-72,36
201,177	-19,11
201,389	11,61
201,6	-92,84
201,812	11,61
202,024	-55,98
202,235	-53,93
202,447	-37,55
202,659	-8,87
202,871	-15,02
203,082	-39,59
203,294	-21,16
203,506	-70,31
203,717	-12,97
203,929	15,7
204,141	5,46
204,352	23,89
204,564	27,99
204,775	-17,07
204,987	34,13
205,199	-25,26
205,41	-15,02
205,622	44,37
205,833	-35,5
206,045	-66,22
206,257	-80,55
206,468	-12,97
206,68	-35,5
206,891	3,41
207,103	-25,26
207,314	-80,55
207,526	-4,78
207,737	-62,12
207,949	-8,87
208,16	15,7
208,372	42,32
208,583	25,94
208,795	-33,45
209,006	-6,83
209,218	-31,4
209,429	-62,12
209,641	-25,26
209,852	-107,18
210,064	23,89
210,275	-70,31
210,487	-47,79
210,698	-12,97
210,909	-74,41
211,121	-39,59
211,332	30,04
211,544	-29,35
211,755	-29,35
211,966	25,94
212,178	-4,78
212,389	40,28
212,6	36,18
212,812	11,61
213,023	23,89
213,234	-53,93
213,446	-19,11
213,657	-88,75
213,868	32,08
214,08	36,18
214,291	54,61
214,502	15,7
214,714	-101,03
214,925	-29,35
215,136	15,7
215,347	-23,21
215,559	-86,7
215,77	-33,45
215,981	11,61
216,192	-6,83
216,404	36,18
216,615	-49,83
216,826	-39,59
217,037	-58,03
217,249	1,37
217,46	48,47
217,671	-84,65
217,882	-60,07
218,093	-17,07
218,304	-0,68
218,516	-12,97
218,727	-60,07
218,938	-49,83
219,149	77,14
219,36	-29,35
219,571	-49,83
219,782	-41,64
219,993	73,04
220,205	-80,55
220,416	3,41
220,627	-37,55
220,838	-4,78
221,049	73,04
221,26	52,56
221,471	-12,97
221,682	27,99
221,893	46,42
222,104	-148,14
222,315	-109,22
222,526	-51,88
222,737	-47,79
222,948	-27,31
223,159	-33,45
223,37	81,24
223,581	-74,41
223,792	-45,74
224,003	-25,26
224,214	-70,31
224,425	-15,02
224,636	-58,03
224,847	19,8
225,058	-51,88
225,269	-17,07
225,48	-88,75
225,691	-51,88
225,902	-33,45
226,112	-86,7
226,323	-70,31
226,534	-2,73
226,745	-17,07
226,956	-49,83
227,167	-39,59
227,378	11,61
227,589	-55,98
227,799	58,71
228,01	15,7
228,221	3,41
228,432	-62,12
228,643	-109,22
228,853	-12,97
229,064	-51,88
229,275	19,8
229,486	-47,79
229,697	-84,65
229,907	-107,18
230,118	-94,89
230,329	-17,07
230,54	-39,59
230,75	27,99
230,961	34,13
231,172	-62,12
231,383	-117,42
231,593	-6,83
231,804	-27,31
232,015	30,04
232,225	-6,83
232,436	1,37
232,647	-74,41
232,857	3,41
233,068	-117,42
233,279	-2,73
233,489	3,41
233,7	-17,07
233,91	-29,35
234,121	-4,78
234,332	-82,6
234,542	-58,03
234,753	-64,17
234,964	-12,97
235,174	3,41
235,385	-19,11
235,595	-94,89
235,806	-6,83
236,016	27,99
236,227	-60,07
236,437	-96,94
236,648	-88,75
236,858	23,89
237,069	-111,27
237,279	1,37
237,49	-15,02
237,7	5,46
237,911	-66,22
238,121	-88,75
238,332	-45,74
238,542	9,56
238,753	-119,46
238,963	-103,08
239,174	-29,35
239,384	3,41
239,595	-4,78
239,805	-117,42
240,015	21,85
240,226	-43,69
240,436	30,04
240,647	7,51
240,857	-4,78
241,067	-15,02
241,278	77,14
241,488	-76,46
241,698	23,89
241,909	-60,07
242,119	-58,03
242,329	-4,78
242,54	-17,07
242,75	-115,37
242,96	-23,21
243,171	-29,35
243,381	-27,31
243,591	-10,92
243,801	23,89
244,012	73,04
244,222	-15,02
244,432	-82,6
244,642	-58,03
244,853	-39,59
245,063	-45,74
245,273	11,61
245,483	-86,7
245,694	1,37
245,904	3,41
246,114	7,51
246,324	-62,12
246,534	-66,22
246,744	-64,17
246,955	-94,89
247,165	77,14
247,375	48,47
247,585	-21,16
247,795	-29,35
248,005	-4,78
248,215	11,61
248,425	-15,02
248,636	152,91
248,846	-29,35
249,056	-37,55
249,266	-80,55
249,476	-37,55
249,686	-82,6
249,896	-55,98
250,106	-12,97
250,316	-47,79
250,526	60,76
250,736	-68,27
250,946	27,99
251,156	36,18
251,366	25,94
251,576	34,13
251,786	-6,83
251,996	-29,35
252,206	-53,93
252,416	36,18
252,626	-31,4
252,836	-29,35
253,046	-4,78
253,256	42,32
253,466	-0,68
253,676	-49,83
253,885	-29,35
254,095	23,89
254,305	40,28
254,515	-86,7
254,725	-21,16
254,935	-6,83
255,145	3,41
255,355	-4,78
255,564	7,51
255,774	-21,16
255,984	17,75
256,194	-70,31
256,404	-4,78
256,614	15,7
256,823	34,13
257,033	-6,83
257,243	9,56
257,453	-33,45
257,662	11,61
257,872	19,8
258,082	27,99
258,292	-68,27
258,501	75,09
258,711	81,24
258,921	56,66
259,131	-37,55
259,34	7,51
259,55	3,41
259,76	-4,78
259,969	-64,17
260,179	-72,36
260,389	19,8
260,598	1,37
260,808	-12,97
261,018	-117,42
261,227	64,85
261,437	-49,83
261,647	27,99
261,856	-47,79
262,066	-37,55
262,275	50,52
262,485	-53,93
262,694	-29,35
262,904	11,61
263,114	-17,07
263,323	-29,35
263,533	19,8
263,742	-88,75
263,952	-25,26
264,161	-51,88
264,371	-8,87
264,58	-12,97
264,79	-33,45
264,999	-21,16
265,209	-4,78
265,418	-49,83
265,628	-53,93
265,837	-29,35
266,047	-6,83
266,256	17,75
266,466	-29,35
266,675	-41,64
266,884	-41,64
267,094	7,51
267,303	-10,92
267,513	25,94
267,722	27,99
267,931	68,95
268,141	-70,31
268,35	52,56
268,559	-21,16
268,769	-10,92
268,978	-111,27
269,187	85,33
269,397	-78,51
269,606	-72,36
269,815	-86,7
270,025	11,61
270,234	-21,16
270,443	-72,36
270,653	-37,55
270,862	-25,26
271,071	-86,7
271,28	-45,74
271,49	32,08
271,699	-72,36
271,908	77,14
272,117	-29,35
272,327	-62,12
272,536	-49,83
272,745	36,18
272,954	-4,78
273,163	-4,78
273,372	11,61
273,582	-60,07
273,791	11,61
274	9,56
274,209	-29,35
274,418	-15,02
274,627	15,7
274,836	-21,16
275,046	-21,16
275,255	-78,51
275,464	-62,12
275,673	-33,45
275,882	-45,74
276,091	27,99
276,3	5,46
276,509	-31,4
276,718	-29,35
276,927	-62,12
277,136	36,18
277,345	-29,35
277,554	11,61
277,763	-8,87
277,972	-37,55
278,181	-70,31
278,39	-37,55
278,599	-51,88
278,808	-23,21
279,017	40,28
279,226	-80,55
279,435	-2,73
279,644	-103,08
279,853	-8,87
280,062	81,24
280,271	-66,22
280,48	-68,27
280,688	-70,31
280,897	-4,78
281,106	-53,93
281,315	-31,4
281,524	-17,07
281,733	-55,98
281,942	-2,73
282,151	3,41
282,359	-19,11
282,568	-37,55
282,777	-29,35
282,986	-45,74
283,195	25,94
283,403	32,08
283,612	-33,45
283,821	-4,78
284,03	-68,27
284,238	36,18
284,447	-55,98
284,656	-6,83
284,865	-21,16
285,073	-23,21
285,282	64,85
285,491	3,41
285,699	-121,51
285,908	17,75
286,117	-55,98
286,325	-23,21
286,534	36,18
286,743	-64,17
286,951	-58,03
287,16	-4,78
287,369	-35,5
287,577	-37,55
287,786	-12,97
287,995	-62,12
288,203	-47,79
288,412	1,37
288,62	71
288,829	-49,83
289,037	-4,78
289,246	-98,99
289,455	-17,07
289,663	-4,78
289,872	13,65
290,08	-25,26
290,289	91,48
290,497	-66,22
290,706	-19,11
290,914	-86,7
291,123	-62,12
291,331	-29,35
291,54	23,89
291,748	44,37
291,957	-33,45
292,165	-58,03
292,373	-111,27
292,582	-29,35
292,79	64,85
292,999	11,61
293,207	-37,55
293,415	-55,98
293,624	-45,74
293,832	-15,02
294,041	40,28
294,249	1,37
294,457	-29,35
294,666	25,94
294,874	-64,17
295,082	19,8
295,291	11,61
295,499	-17,07
295,707	-66,22
295,915	15,7
296,124	-8,87
296,332	-55,98
296,54	21,85
296,749	5,46
296,957	42,32
297,165	-58,03
297,373	-62,12
297,581	-37,55
297,79	-8,87
297,998	-51,88
298,206	-51,88
298,414	-64,17
298,622	1,37
298,831	7,51
299,039	25,94
299,247	23,89
299,455	5,46
299,663	-39,59
299,871	-55,98
300,08	-43,69
300,288	-25,26
300,496	-160,42
300,704	-43,69
300,912	-15,02
301,12	44,37
301,328	-49,83
301,536	-17,07
301,744	-111,27
301,952	1,37
302,16	-15,02
302,368	-86,7
302,576	-12,97
302,784	118,1
302,992	-103,08
303,2	-78,51
303,408	-25,26
303,616	48,47
303,824	-21,16
304,032	3,41
304,24	23,89
304,448	9,56
304,656	-29,35
304,864	75,09
305,072	1,37
305,28	-29,35
305,488	-45,74
305,696	-17,07
305,904	17,75
306,111	-96,94
306,319	-121,51
306,527	-29,35
306,735	-35,5
306,943	-31,4
307,151	-37,55
307,359	-45,74
307,566	77,14
307,774	40,28
307,982	52,56
308,19	-64,17
308,398	-55,98
308,605	-62,12
308,813	1,37
309,021	-35,5
309,229	-21,16
309,436	19,8
309,644	3,41
309,852	17,75
310,06	91,48
310,267	-49,83
310,475	-21,16
310,683	-37,55
310,89	79,19
311,098	68,95
311,306	-35,5
311,513	-6,83
311,721	-127,66
311,929	11,61
312,136	-62,12
312,344	-25,26
312,552	-23,21
312,759	-53,93
312,967	19,8
313,174	48,47
313,382	-39,59
313,589	-55,98
313,797	52,56
314,005	21,85
314,212	-8,87
314,42	-90,79
314,627	-64,17
314,835	-29,35
315,042	-94,89
315,25	-41,64
315,457	-137,9
315,665	-103,08
315,872	-41,64
316,08	38,23
316,287	40,28
316,495	224,59
316,702	-88,75
316,909	-31,4
317,117	-33,45
317,324	27,99
317,532	11,61
317,739	-17,07
317,946	32,08
318,154	-15,02
318,361	-66,22
318,569	-12,97
318,776	-15,02
318,983	-37,55
319,191	-6,83
319,398	-15,02
319,605	27,99
319,813	-15,02
320,02	-94,89
320,227	105,81
320,434	15,7
320,642	-31,4
320,849	-4,78
321,056	-94,89
321,264	-10,92
321,471	34,13
321,678	-29,35
321,885	-41,64
322,092	13,65
322,3	-35,5
322,507	-113,32
322,714	-21,16
322,921	-55,98
323,128	-58,03
323,336	-39,59
323,543	32,08
323,75	5,46
323,957	-4,78
324,164	11,61
324,371	1,37
324,578	-19,11
324,786	19,8
324,993	-101,03
325,2	36,18
325,407	-129,7
325,614	-33,45
325,821	-4,78
326,028	87,38
326,235	-4,78
326,442	-39,59
326,649	-8,87
326,856	134,48
327,063	-94,89
327,27	-49,83
327,477	-25,26
327,684	-60,07
327,891	-66,22
328,098	1,37
328,305	-39,59
328,512	-82,6
328,719	7,51
328,926	64,85
329,133	-98,99
329,34	93,52
329,546	-21,16
329,753	-27,31
329,96	-37,55
330,167	19,8
330,374	-15,02
330,581	25,94
330,788	-45,74
330,995	-55,98
331,201	-8,87
331,408	-23,21
331,615	-33,45
331,822	11,61
332,029	-45,74
332,235	-4,78
332,442	-127,66
332,649	-37,55
332,856	-111,27
333,062	-37,55
333,269	3,41
333,476	15,7
333,683	5,46
333,889	27,99
334,096	-31,4
334,303	-27,31
334,509	-29,35
334,716	-25,26
334,923	-31,4
335,129	-129,7
335,336	-21,16
335,543	-45,74
335,749	-64,17
335,956	54,61
336,163	-64,17
336,369	-78,51
336,576	-29,35
336,782	9,56
336,989	-60,07
337,196	-66,22
337,402	-62,12
337,609	-4,78
337,815	13,65
338,022	30,04
338,228	-25,26
338,435	81,24
338,641	34,13
338,848	36,18
339,054	-41,64
339,261	-58,03
339,467	-72,36
339,674	3,41
339,88	-80,55
340,087	-55,98
340,293	-55,98
340,5	-39,59
340,706	-49,83
340,912	-129,7
341,119	-4,78
341,325	-70,31
341,532	-39,59
341,738	-47,79
341,944	-25,26
342,151	19,8
342,357	-31,4
342,563	17,75
342,77	-27,31
342,976	-39,59
343,182	62,8
343,389	68,95
343,595	-78,51
343,801	-35,5
344,007	-23,21
344,214	-121,51
344,42	-45,74
344,626	-49,83
344,832	-92,84
345,039	-39,59
345,245	38,23
345,451	-101,03
345,657	-23,21
345,864	-64,17
346,07	3,41
346,276	-15,02
346,482	5,46
346,688	1,37
346,894	-98,99
347,1	19,8
347,307	-33,45
347,513	32,08
347,719	-23,21
347,925	36,18
348,131	-94,89
348,337	64,85
348,543	-76,46
348,749	-39,59
348,955	58,71
349,161	-88,75
349,367	-25,26
349,573	66,9
349,779	32,08
349,985	-25,26
350,191	-39,59
350,397	27,99
350,603	-21,16
350,809	-66,22
351,015	-45,74
351,221	15,7
351,427	44,37
351,633	-21,16
351,839	-47,79
352,045	-17,07
352,251	48,47
352,457	7,51
352,663	-21,16
352,869	-70,31
353,075	-35,5
353,28	-15,02
353,486	-94,89
353,692	-111,27
353,898	-51,88
354,104	-62,12
354,31	19,8
354,515	-17,07
354,721	-0,68
354,927	-12,97
355,133	23,89
355,339	-49,83
355,544	13,65
355,75	40,28
355,956	-10,92
356,162	-4,78
356,367	-17,07
356,573	11,61
356,779	-45,74
356,984	-21,16
357,19	25,94
357,396	-53,93
357,602	75,09
357,807	-10,92
358,013	5,46
358,218	-49,83
358,424	-41,64
358,63	-45,74
358,835	-70,31
359,041	-94,89
359,247	-12,97
359,452	-58,03
359,658	-103,08
359,863	-23,21
360,069	-21,16
360,274	-66,22
360,48	105,81
360,685	-8,87
360,891	32,08
361,097	-19,11
361,302	-23,21
361,508	-2,73
361,713	-12,97
361,918	32,08
362,124	-60,07
362,329	-60,07
362,535	-15,02
362,74	-47,79
362,946	-78,51
363,151	3,41
363,357	-21,16
363,562	-53,93
363,767	-33,45
363,973	-43,69
364,178	-45,74
364,383	-96,94
364,589	19,8
364,794	-27,31
365	-2,73
365,205	1,37
365,41	-74,41
365,615	3,41
365,821	-123,56
366,026	50,52
366,231	21,85
366,437	36,18
366,642	-64,17
366,847	-2,73
367,052	-64,17
367,258	-49,83
367,463	-51,88
367,668	27,99
367,873	40,28
368,078	107,86
368,284	-53,93
368,489	-2,73
368,694	-0,68
368,899	116,05
369,104	27,99
369,309	-21,16
369,515	-10,92
369,72	-6,83
369,925	-53,93
370,13	3,41
370,335	-6,83
370,54	-21,16
370,745	-27,31
370,95	27,99
371,155	3,41
371,36	40,28
371,565	-8,87
371,77	-62,12
371,975	-62,12
372,18	5,46
372,385	42,32
372,59	3,41
372,795	-31,4
373	-25,26
373,205	23,89
373,41	-2,73
373,615	-53,93
373,82	-70,31
374,025	19,8
374,23	-121,51
374,435	-45,74
374,64	3,41
374,845	40,28
375,05	-51,88
375,254	-53,93
375,459	3,41
375,664	-74,41
375,869	36,18
376,074	-35,5
376,279	-60,07
376,483	58,71
376,688	-6,83
376,893	-23,21
377,098	-15,02
377,303	17,75
377,507	19,8
377,712	-8,87
377,917	-21,16
378,122	5,46
378,326	30,04
378,531	-58,03
378,736	-17,07
378,94	-55,98
379,145	-43,69
379,35	11,61
379,554	-68,27
379,759	-15,02
379,964	-0,68
380,168	-53,93
380,373	13,65
380,578	97,62
380,782	36,18
380,987	-4,78
381,191	-8,87
381,396	-4,78
381,601	64,85
381,805	64,85
382,01	60,76
382,214	3,41
382,419	44,37
382,623	-0,68
382,828	32,08
383,032	-31,4
383,237	-68,27
383,441	-113,32
383,646	38,23
383,85	-70,31
384,055	3,41
384,259	44,37
384,464	-74,41
384,668	-21,16
384,872	-23,21
385,077	-45,74
385,281	32,08
385,486	-70,31
385,69	-17,07
385,894	36,18
386,099	85,33
386,303	48,47
386,507	7,51
386,712	107,86
386,916	17,75
387,12	11,61
387,325	42,32
387,529	1,37
387,733	5,46
387,937	13,65
388,142	-29,35
388,346	-47,79
388,55	48,47
388,754	3,41
388,959	25,94
389,163	-12,97
389,367	44,37
389,571	34,13
389,775	75,09
389,98	99,67
390,184	-25,26
390,388	50,52
390,592	118,1
390,796	42,32
391	32,08
391,204	17,75
391,409	1,37
391,613	46,42
391,817	46,42
392,021	60,76
392,225	-4,78
392,429	1,37
392,633	9,56
392,837	-8,87
393,041	-12,97
393,245	-45,74
393,449	-45,74
393,653	42,32
393,857	81,24
394,061	60,76
394,265	118,1
394,469	126,29
394,673	30,04
394,877	107,86
395,081	21,85
395,285	77,14
395,489	-8,87
395,693	-0,68
395,896	30,04
396,1	25,94
396,304	126,29
396,508	19,8
396,712	60,76
396,916	50,52
397,12	116,05
397,323	109,91
397,527	25,94
397,731	130,39
397,935	163,15
398,139	85,33
398,342	128,34
398,546	85,33
398,75	48,47
398,954	93,52
399,157	140,63
399,361	197,97
399,565	99,67
399,769	136,53
399,972	126,29
400,176	75,09
400,38	189,78
400,583	52,56
400,787	97,62
400,991	130,39
401,194	185,68
401,398	138,58
401,601	165,2
401,805	171,35
402,009	124,24
402,212	126,29
402,416	222,55
402,619	161,11
402,823	116,05
403,026	148,82
403,23	109,91
403,433	195,92
403,637	97,62
403,841	187,73
404,044	208,21
404,247	177,49
404,451	220,5
404,654	253,27
404,858	187,73
405,061	116,05
405,265	179,54
405,468	159,06
405,672	126,29
405,875	148,82
406,078	126,29
406,282	138,58
406,485	159,06
406,689	185,68
406,892	232,79
407,095	183,63
407,299	132,44
407,502	208,21
407,705	179,54
407,909	159,06
408,112	146,77
408,315	249,17
408,518	245,07
408,722	177,49
408,925	251,22
409,128	228,69
409,331	247,12
409,535	257,36
409,738	271,7
409,941	349,52
410,144	154,96
410,347	234,83
410,551	216,4
410,754	224,59
410,957	161,11
411,16	212,31
411,363	253,27
411,566	341,33
411,769	206,16
411,973	216,4
412,176	286,03
412,379	349,52
412,582	220,5
412,785	245,07
412,988	150,87
413,191	224,59
413,394	261,46
413,597	253,27
413,8	226,64
414,003	322,9
414,206	210,26
414,409	249,17
414,612	316,75
414,815	200,02
415,018	240,98
415,221	206,16
415,424	324,94
415,627	208,21
415,83	275,79
416,033	304,46
416,235	302,42
416,438	283,99
416,641	292,18
416,844	281,94
417,047	183,63
417,25	146,77
417,453	286,03
417,655	181,59
417,858	267,6
418,061	286,03
418,264	247,12
418,467	183,63
418,669	253,27
418,872	257,36
419,075	148,82
419,278	273,75
419,48	294,22
419,683	210,26
419,886	224,59
420,089	290,13
420,291	298,32
420,494	261,46
420,697	195,92
420,899	257,36
421,102	226,64
421,305	308,56
421,507	195,92
421,71	329,04
421,912	267,6
422,115	220,5
422,318	314,7
422,52	279,89
422,723	197,97
422,925	376,14
423,128	263,51
423,33	212,31
423,533	193,87
423,735	224,59
423,938	298,32
424,14	251,22
424,343	347,47
424,545	290,13
424,748	238,93
424,95	290,13
425,153	302,42
425,355	243,03
425,558	351,57
425,76	253,27
425,962	265,55
426,165	314,7
426,367	253,27
426,57	296,27
426,772	265,55
426,974	279,89
427,177	175,44
427,379	240,98
427,581	306,51
427,784	195,92
427,986	218,45
428,188	269,65
428,39	314,7
428,593	212,31
428,795	300,37
428,997	339,28
429,2	224,59
429,402	185,68
429,604	138,58
429,806	169,3
430,008	312,66
430,211	206,16
430,413	220,5
430,615	310,61
430,817	208,21
431,019	277,84
431,221	320,85
431,423	273,75
431,626	243,03
431,828	281,94
432,03	257,36
432,232	372,05
432,434	357,71
432,636	275,79
432,838	191,83
433,04	286,03
433,242	267,6
433,444	257,36
433,646	365,9
433,848	273,75
434,05	320,85
434,252	255,31
434,454	308,56
434,656	294,22
434,858	302,42
435,06	345,42
435,262	384,34
435,464	290,13
435,666	427,34
435,868	421,2
436,07	437,58
436,271	333,14
436,473	378,19
436,675	359,76
436,877	349,52
437,079	333,14
437,281	310,61
437,482	363,86
437,684	271,7
437,886	304,46
438,088	312,66
438,29	310,61
438,491	355,66
438,693	290,13
438,895	306,51
439,097	359,76
439,298	343,38
439,5	298,32
439,702	290,13
439,903	314,7
440,105	308,56
440,307	462,16
440,508	419,15
440,71	372,05
440,912	339,28
441,113	363,86
441,315	410,96
441,517	298,32
441,718	451,92
441,92	392,53
442,121	388,43
442,323	298,32
442,524	417,1
442,726	421,2
442,928	337,23
443,129	355,66
443,331	353,62
443,532	404,82
443,734	290,13
443,935	419,15
444,136	271,7
444,338	386,38
444,539	388,43
444,741	388,43
444,942	396,62
445,144	413,01
445,345	427,34
445,546	294,22
445,748	324,94
445,949	343,38
446,151	316,75
446,352	341,33
446,553	492,88
446,755	343,38
446,956	376,14
447,157	314,7
447,359	460,11
447,56	376,14
447,761	353,62
447,962	398,67
448,164	339,28
448,365	304,46
448,566	460,11
448,767	451,92
448,969	480,59
449,17	331,09
449,371	400,72
449,572	419,15
449,773	343,38
449,974	468,3
450,176	484,69
450,377	421,2
450,578	429,39
450,779	380,24
450,98	333,14
451,181	370
451,382	394,58
451,583	380,24
451,784	372,05
451,986	339,28
452,187	396,62
452,388	396,62
452,589	458,06
452,79	355,66
452,991	300,37
453,192	441,68
453,393	421,2
453,594	339,28
453,795	363,86
453,995	390,48
454,196	466,25
454,397	449,87
454,598	345,42
454,799	378,19
455	441,68
455,201	468,3
455,402	509,26
455,603	410,96
455,804	400,72
456,004	343,38
456,205	441,68
456,406	382,29
456,607	402,77
456,808	453,97
457,008	386,38
457,209	339,28
457,41	531,79
457,611	415,06
457,811	599,37
458,012	384,34
458,213	367,95
458,414	470,35
458,614	427,34
458,815	294,22
459,016	572,75
459,216	449,87
459,417	505,17
459,618	513,36
459,818	408,91
460,019	419,15
460,22	380,24
460,42	470,35
460,621	443,73
460,821	396,62
461,022	464,21
461,223	413,01
461,423	445,77
461,624	458,06
461,824	404,82
462,025	462,16
462,225	413,01
462,426	529,74
462,626	372,05
462,827	443,73
463,027	470,35
463,228	419,15
463,428	482,64
463,628	490,83
463,829	527,69
464,029	431,44
464,23	370
464,43	507,21
464,63	367,95
464,831	466,25
465,031	486,73
465,231	429,39
465,432	535,89
465,632	542,03
465,832	349,52
466,033	478,54
466,233	396,62
466,433	599,37
466,634	478,54
466,834	499,02
467,034	423,25
467,234	515,41
467,435	445,77
467,635	443,73
467,835	494,93
468,035	582,99
468,235	441,68
468,436	535,89
468,636	515,41
468,836	421,2
469,036	478,54
469,236	550,22
469,436	468,3
469,636	556,36
469,836	421,2
470,037	517,45
470,237	517,45
470,437	634,19
470,637	550,22
470,837	503,12
471,037	650,57
471,237	560,46
471,437	472,4
471,637	621,9
471,837	560,46
472,037	533,84
472,237	593,23
472,437	544,08
472,637	611,66
472,837	685,39
473,036	548,17
473,236	675,15
473,436	570,7
473,636	539,98
473,836	527,69
474,036	666,96
474,236	521,55
474,436	605,52
474,635	613,71
474,835	654,67
475,035	632,14
475,235	613,71
475,435	638,28
475,634	529,74
475,834	623,95
476,034	718,15
476,234	595,28
476,433	687,43
476,633	814,41
476,833	666,96
477,033	613,71
477,232	638,28
477,432	654,67
477,632	730,44
477,831	685,39
478,031	738,63
478,231	767,31
478,43	781,64
478,63	699,72
478,829	671,05
479,029	738,63
479,229	714,06
479,428	589,13
479,628	845,13
479,827	779,59
480,027	728,39
480,226	894,28
480,426	879,94
480,625	765,26
480,825	724,3
481,024	808,27
481,224	838,98
481,423	779,59
481,623	843,08
481,822	687,43
482,021	863,56
482,221	740,68
482,42	904,52
482,62	843,08
482,819	875,85
483,018	843,08
483,218	863,56
483,417	853,32
483,616	865,61
483,816	830,79
484,015	867,66
484,214	798,03
484,414	812,36
484,613	914,76
484,812	820,55
485,011	787,79
485,211	779,59
485,41	900,42
485,609	748,87
485,808	855,37
486,008	918,86
486,207	791,88
486,406	861,51
486,605	845,13
486,804	929,1
487,003	812,36
487,203	910,66
487,402	845,13
487,601	810,31
487,8	890,18
487,999	798,03
488,198	951,62
488,397	867,66
488,596	916,81
488,795	929,1
488,994	929,1
489,193	916,81
489,392	963,91
489,591	976,2
489,79	896,33
489,989	978,25
490,188	890,18
490,387	920,9
490,586	943,43
490,785	918,86
490,984	947,53
491,183	955,72
491,382	920,9
491,581	910,66
491,779	970,05
491,978	963,91
492,177	904,52
492,376	1004,87
492,575	986,44
492,774	1060,17
492,972	894,28
493,171	982,34
493,37	838,98
493,569	1062,21
493,768	1041,73
493,966	986,44
494,165	970,05
494,364	1174,85
494,563	1035,59
494,761	986,44
494,96	943,43
495,159	961,86
495,357	970,05
495,556	1045,83
495,755	1135,94
495,953	1066,31
496,152	949,57
496,35	904,52
496,549	959,81
496,748	1019,21
496,946	992,58
497,145	1035,59
497,343	918,86
497,542	937,29
497,74	1060,17
497,939	1000,77
498,137	1105,22
498,336	929,1
498,534	1002,82
498,733	970,05
498,931	965,96
499,13	920,9
499,328	902,47
499,527	953,67
499,725	875,85
499,924	920,9
500,122	959,81
500,32	994,63
500,519	945,48
500,717	943,43
500,915	929,1
501,114	900,42
501,312	1027,4
501,51	773,45
501,709	902,47
501,907	1068,36
502,105	916,81
502,304	927,05
502,502	925
502,7	929,1
502,898	879,94
503,097	896,33
503,295	976,2
503,493	879,94
503,691	1008,97
503,889	873,8
504,088	970,05
504,286	929,1
504,484	945,48
504,682	933,19
504,88	982,34
505,078	970,05
505,276	886,09
505,474	978,25
505,672	978,25
505,871	945,48
506,069	1019,21
506,267	912,71
506,465	978,25
506,663	873,8
506,861	904,52
507,059	1011,01
507,257	1035,59
507,455	912,71
507,653	892,23
507,851	976,2
508,049	881,99
508,246	937,29
508,444	961,86
508,642	1043,78
508,84	1025,35
509,038	992,58
509,236	1045,83
509,434	912,71
509,632	1031,49
509,829	972,1
510,027	922,95
510,225	1033,54
510,423	974,15
510,621	961,86
510,818	1066,31
511,016	1074,5
511,214	941,38
511,412	1000,77
511,609	968,01
511,807	976,2
512,005	855,37
512,203	1035,59
512,4	937,29
512,598	1021,25
512,796	1019,21
512,993	1031,49
513,191	1019,21
513,389	963,91
513,586	1025,35
513,784	970,05
513,981	1078,6
514,179	1039,69
514,377	945,48
514,574	1072,45
514,772	1013,06
514,969	970,05
515,167	886,09
515,364	974,15
515,562	959,81
515,759	986,44
515,957	877,9
516,154	892,23
516,352	1000,77
516,549	963,91
516,746	855,37
516,944	1002,82
517,141	978,25
517,339	884,04
517,536	920,9
517,733	943,43
517,931	1021,25
518,128	875,85
518,325	863,56
518,523	1019,21
518,72	994,63
518,917	996,68
519,115	1019,21
519,312	998,73
519,509	1107,27
519,707	1017,16
519,904	988,49
520,101	976,2
520,298	1047,88
520,495	1031,49
520,693	941,38
520,89	990,53
521,087	1019,21
521,284	1121,6
521,481	1015,11
521,678	1060,17
521,876	1066,31
522,073	1092,93
522,27	1115,46
522,467	1064,26
522,664	949,57
522,861	1181
523,058	1219,91
523,255	1064,26
523,452	1043,78
523,649	1064,26
523,846	1006,92
524,043	1070,4
524,24	1002,82
524,437	1097,03
524,634	1045,83
524,831	1008,97
525,028	1021,25
525,225	1017,16
525,422	1058,12
525,619	988,49
525,816	951,62
526,013	1017,16
526,209	976,2
526,406	1025,35
526,603	1011,01
526,8	957,77
526,997	1004,87
527,194	1092,93
527,39	1092,93
527,587	1043,78
527,784	1051,97
527,981	996,68
528,177	998,73
528,374	1115,46
528,571	1031,49
528,768	1043,78
528,964	1015,11
529,161	1004,87
529,358	1195,33
529,554	945,48
529,751	1025,35
529,948	1031,49
530,144	1047,88
530,341	1006,92
530,537	1011,01
530,734	1125,7
530,931	1006,92
531,127	1017,16
531,324	976,2
531,52	908,62
531,717	1047,88
531,913	1060,17
532,11	1080,64
532,306	1080,64
532,503	1051,97
532,699	1043,78
532,896	1133,89
533,092	1047,88
533,289	990,53
533,485	1682,75
533,682	1076,55
533,878	1142,08
534,074	957,77
534,271	1123,65
534,467	1164,61
534,664	1049,93
534,86	1000,77
535,056	1107,27
535,253	1105,22
535,449	1111,36
535,645	1125,7
535,841	1058,12
536,038	986,44
536,234	994,63
536,43	1105,22
536,626	1109,32
536,823	1215,81
537,019	976,2
537,215	1060,17
537,411	1211,71
537,607	1056,07
537,804	978,25
538	1054,02
538,196	1047,88
538,392	1006,92
538,588	1015,11
538,784	1004,87
538,98	900,42
539,176	1019,21
539,373	1117,51
539,569	1084,74
539,765	978,25
539,961	1019,21
540,157	933,19
540,353	1019,21
540,549	1135,94
540,745	1039,69
540,941	1000,77
541,137	1099,08
541,333	1006,92
541,528	1029,45
541,724	943,43
541,92	982,34
542,116	1121,6
542,312	996,68
542,508	1035,59
542,704	1109,32
542,9	1097,03
543,096	1019,21
543,291	1045,83
543,487	1013,06
543,683	982,34
543,879	1043,78
544,075	1111,36
544,27	980,29
544,466	1037,64
544,662	1103,17
544,858	1054,02
545,053	1039,69
545,249	1129,8
545,445	1111,36
545,64	1056,07
545,836	994,63
546,032	970,05
546,227	982,34
546,423	1154,37
546,619	902,47
546,814	1047,88
547,01	1060,17
547,205	1041,73
547,401	994,63
547,597	1021,25
547,792	1101,12
547,988	1015,11
548,183	1035,59
548,379	1076,55
548,574	1076,55
548,77	998,73
548,965	1066,31
549,161	980,29
549,356	998,73
549,552	1011,01
549,747	945,48
549,942	1125,7
550,138	1078,6
550,333	980,29
550,529	1039,69
550,724	1084,74
550,919	1039,69
551,115	1115,46
551,31	1185,09
551,505	998,73
551,701	1213,76
551,896	1156,42
552,091	1056,07
552,287	1140,04
552,482	1082,69
552,677	1160,52
552,872	1068,36
553,067	1035,59
553,263	1025,35
553,458	990,53
553,653	1101,12
553,848	1189,19
554,043	1056,07
554,239	1097,03
554,434	1105,22
554,629	1062,21
554,824	1090,88
555,019	1017,16
555,214	1025,35
555,409	1056,07
555,604	1226,05
555,799	1131,84
555,994	1041,73
556,189	970,05
556,384	1049,93
556,579	978,25
556,774	1127,75
556,969	986,44
557,164	1082,69
557,359	970,05
557,554	1127,75
557,749	949,57
557,944	1099,08
558,139	1215,81
558,334	1041,73
558,529	1109,32
558,724	1029,45
558,918	1109,32
559,113	1086,79
559,308	1142,08
559,503	1162,56
559,698	1076,55
559,893	1158,47
560,087	1224
560,282	1111,36
560,477	1197,38
560,672	1082,69
560,866	1064,26
561,061	1133,89
561,256	1035,59
561,45	1123,65
561,645	1133,89
561,84	1189,19
562,034	1158,47
562,229	1176,9
562,424	1150,28
562,618	1164,61
562,813	1027,4
563,008	1135,94
563,202	1133,89
563,397	1164,61
563,591	1150,28
563,786	1172,8
563,98	1097,03
564,175	1117,51
564,369	1232,19
564,564	1148,23
564,758	1181
564,953	1156,42
565,147	1209,67
565,342	1221,95
565,536	1256,77
565,731	1228,1
565,925	1346,88
566,119	1236,29
566,314	1303,87
566,508	1269,06
566,703	1262,91
566,897	1152,32
567,091	1252,67
567,286	1330,5
567,48	1426,75
567,674	1277,25
567,868	1234,24
568,063	1303,87
568,257	1336,64
568,451	1359,17
568,646	1336,64
568,84	1301,83
569,034	1326,4
569,228	1295,68
569,422	1387,84
569,616	1359,17
569,811	1400,13
570,005	1389,89
570,199	1488,19
570,393	1381,7
570,587	1432,9
570,781	1398,08
570,975	1508,67
571,169	1469,76
571,364	1602,88
571,558	1647,93
571,752	1582,4
571,946	1551,68
572,14	1735,99
572,334	1606,97
572,528	1609,02
572,722	1576,25
572,916	1721,66
573,109	1705,28
573,303	1692,99
573,497	1666,36
573,691	1854,78
573,885	1658,17
574,079	1701,18
574,273	1768,76
574,467	1854,78
574,661	1723,71
574,854	1824,06
575,048	1840,44
575,242	1826,11
575,436	1936,7
575,63	1989,94
575,823	2061,62
576,017	1938,74
576,211	1932,6
576,405	2059,57
576,598	2000,18
576,792	2053,43
576,986	2114,87
577,18	2141,49
577,373	2145,59
577,567	2147,64
577,761	2256,18
577,954	2370,87
578,148	2276,66
578,341	2284,85
578,535	2452,78
578,729	2391,34
578,922	2467,12
579,116	2493,74
579,309	2534,7
579,503	2587,95
579,696	2622,77
579,89	2784,55
580,083	2739,5
580,277	2702,64
580,47	2850,09
580,664	2821,42
580,857	2856,23
581,051	2983,21
581,244	2909,48
581,437	3024,17
581,631	3136,81
581,824	3202,34
582,018	3196,2
582,211	3198,24
582,404	3300,64
582,598	3185,96
582,791	3376,42
582,984	3456,29
583,178	3499,3
583,371	3624,22
583,564	3562,78
583,757	3755,29
583,951	3808,54
584,144	3718,43
584,337	3874,07
584,53	3747,1
584,723	3968,28
584,917	4066,58
585,11	3927,32
585,303	4132,12
585,496	4179,22
585,689	4396,31
585,882	4371,73
586,075	4427,03
586,268	4521,23
586,462	4482,32
586,655	4691,21
586,848	5016,84
587,041	5043,46
587,234	5328,13
587,427	5604,61
587,62	5782,78
587,813	6061,3
588,006	6278,39
588,199	6137,08
588,392	6186,23
588,585	6077,69
588,777	6083,83
588,97	6001,91
589,163	5944,57
589,356	6178,04
589,549	6339,83
589,742	6343,92
589,935	6122,74
590,128	6294,77
590,32	6505,71
590,513	6442,23
590,706	6636,78
590,899	6702,32
591,092	7085,29
591,284	7056,62
591,477	7310,57
591,67	7455,97
591,863	7736,54
592,055	7437,54
592,248	7478,5
592,441	7576,8
592,633	8051,93
592,826	7984,35
593,019	8377,56
593,211	8258,78
593,404	8596,69
593,596	8672,46
593,789	8541,39
593,982	8830,16
594,174	9194,7
594,367	9194,7
594,559	9665,73
594,752	9501,89
594,944	9735,36
595,137	10044,6
595,329	10370,23
595,522	10658,99
595,714	10843,31
595,907	10968,24
596,099	11320,49
596,292	11529,38
596,484	11785,38
596,676	11936,93
596,869	12119,2
597,061	12475,54
597,253	12496,02
597,446	12983,44
597,638	13579,4
597,83	13556,87
598,023	13859,97
598,215	14304,38
598,407	14535,8
598,6	14687,35
598,792	15119,47
598,984	15244,4
599,176	15793,25
599,369	16057,44
599,561	16460,89
599,753	16778,33
599,945	17368,14
600,137	17472,59
600,329	17716,29
600,522	18109,5
600,714	18838,58
600,906	19031,09
601,098	19604,52
601,29	20032,55
601,482	20335,65
601,674	21048,34
601,866	21398,54
602,058	21597,2
602,25	22174,72
602,442	22684,67
602,634	23446,51
602,826	23530,48
603,018	24445,92
603,21	25109,46
603,402	25390,03
603,594	25787,34
603,786	26373,06
603,978	26850,24
604,17	27481,01
604,362	28244,9
604,554	28652,45
604,745	29354,9
604,937	30389,13
605,129	30722,94
605,321	30663,55
605,513	31910,77
605,704	32512,87
605,896	32742,24
606,088	33186,65
606,28	34024,27
606,471	34622,28
606,663	34767,68
606,855	35806
607,047	36297,52
607,238	36778,79
607,43	36565,8
607,622	38515,47
607,813	38658,82
608,005	39420,67
608,197	39801,59
608,388	40506,09
608,58	40948,45
608,771	42025,68
608,963	42472,14
609,154	43088,58
609,346	43090,63
609,537	44233,39
609,729	44579,5
609,921	45453,98
610,112	45187,75
610,303	46260,88
610,495	46512,78
610,686	47516,29
610,878	47420,03
611,069	48597,62
611,261	48927,34
611,452	49443,43
611,643	50102,87
611,835	50569,81
612,026	50930,25
612,217	51352,13
612,409	51724,86
612,6	52286,01
612,791	51647,04
612,983	52427,32
613,174	53033,52
613,365	53621,28
613,557	52873,77
613,748	52879,92
613,939	52142,65
614,13	52177,47
614,321	51479,11
614,513	51608,13
614,704	50774,61
614,895	50938,44
615,086	50033,24
615,277	50180,7
615,468	48618,1
615,659	48642,67
615,851	46957,19
616,042	46432,91
616,233	45142,69
616,424	44661,42
616,615	43039,43
616,806	42021,59
616,997	40395,5
617,188	39893,75
617,379	39088,9
617,57	37894,93
617,761	36926,24
617,952	35363,64
618,143	34087,76
618,334	33051,49
618,524	31708,02
618,715	30331,78
618,906	29410,2
619,097	28158,89
619,288	27251,64
619,479	26229,7
619,67	24728,54
619,86	23606,25
620,051	22533,12
620,242	21816,33
620,433	20667,42
620,624	19924,01
620,814	19407,92
621,005	18508,86
621,196	17312,85
621,386	17355,85
621,577	16452,7
621,768	15481,96
621,958	14707,83
622,149	14247,04
622,34	13655,17
622,53	13010,06
622,721	12500,12
622,912	12352,66
623,102	11609,25
623,293	11142,32
623,483	10943,66
623,674	10286,26
623,864	10075,32
624,055	9592
624,245	9194,7
624,436	8752,34
624,626	8348,89
624,817	8015,07
625,007	7802,08
625,198	7533,79
625,388	7312,61
625,579	7081,19
625,769	6872,3
625,959	6628,59
626,15	6202,61
626,34	6157,56
626,531	6067,45
626,721	5852,41
626,911	5418,24
627,101	5528,83
627,292	5217,54
627,482	5002,51
627,672	4943,11
627,863	4662,54
628,053	4603,15
628,243	4586,77
628,433	4205,85
628,623	4156,69
628,814	3996,95
629,004	4068,63
629,194	3697,95
629,384	3638,56
629,574	3364,13
629,764	3491,1
629,955	3435,81
630,145	3327,27
630,335	3271,97
630,525	3149,09
630,715	2948,39
630,905	2880,81
631,095	2663,72
631,285	2608,43
631,475	2534,7
631,665	2712,88
631,855	2563,37
632,045	2354,48
632,235	2286,9
632,425	2284,85
632,615	2223,41
632,805	2256,18
632,994	2022,71
633,184	2069,81
633,374	2123,06
633,564	1846,59
633,754	1940,79
633,944	1881,4
634,133	1748,28
634,323	1819,96
634,513	1826,11
634,703	1781,05
634,893	1498,43
635,082	1500,48
635,272	1543,49
635,462	1641,79
635,651	1664,32
635,841	1461,57
636,031	1359,17
636,221	1396,03
636,41	1428,8
636,6	1338,69
636,789	1314,11
636,979	1314,11
637,169	1305,92
637,358	1029,45
637,548	1275,2
637,737	1181
637,927	1256,77
638,116	1207,62
638,306	1156,42
638,495	1162,56
638,685	1150,28
638,874	1162,56
639,064	1070,4
639,253	1068,36
639,443	1000,77
639,632	1037,64
639,822	935,24
640,011	1076,55
640,2	972,1
640,39	970,05
640,579	1033,54
640,768	900,42
640,958	892,23
641,147	912,71
641,336	951,62
641,526	918,86
641,715	884,04
641,904	845,13
642,093	808,27
642,283	929,1
642,472	861,51
642,661	795,98
642,85	914,76
643,039	810,31
643,228	863,56
643,418	855,37
643,607	755,02
643,796	804,17
643,985	638,28
644,174	752,97
644,363	701,77
644,552	734,54
644,741	669
644,93	687,43
645,119	671,05
645,308	628,04
645,497	687,43
645,686	656,72
645,875	617,8
646,064	642,38
646,253	599,37
646,442	755,02
646,631	634,19
646,82	544,08
647,009	527,69
647,198	585,04
647,387	529,74
647,575	580,94
647,764	1011,01
647,953	607,56
648,142	556,36
648,331	648,52
648,519	648,52
648,708	626
648,897	611,66
649,086	607,56
649,274	523,6
649,463	490,83
649,652	650,57
649,84	552,27
650,029	578,89
650,218	621,9
650,406	560,46
650,595	503,12
650,784	580,94
650,972	552,27
651,161	539,98
651,349	490,83
651,538	523,6
651,726	556,36
651,915	542,03
652,104	552,27
652,292	548,17
652,481	570,7
652,669	634,19
652,857	501,07
653,046	558,41
653,234	513,36
653,423	550,22
653,611	413,01
653,8	521,55
653,988	453,97
654,176	476,49
654,365	413,01
654,553	519,5
654,741	482,64
654,93	429,39
655,118	470,35
655,306	447,82
655,494	343,38
655,683	408,91
655,871	517,45
656,059	433,49
656,247	470,35
656,436	494,93
656,624	378,19
656,812	462,16
657	410,96
657,188	556,36
657,376	394,58
657,564	515,41
657,753	441,68
657,941	453,97
658,129	451,92
658,317	458,06
658,505	433,49
658,693	472,4
658,881	431,44
659,069	456,01
659,257	462,16
659,445	435,53
659,633	486,73
659,821	451,92
660,009	503,12
660,197	441,68
660,384	476,49
660,572	550,22
660,76	515,41
660,948	447,82
661,136	406,86
661,324	453,97
661,512	533,84
661,699	410,96
661,887	519,5
662,075	474,45
662,263	384,34
662,451	488,78
662,638	539,98
662,826	447,82
663,014	539,98
663,201	425,29
663,389	527,69
663,577	494,93
663,764	462,16
663,952	419,15
664,14	521,55
664,327	482,64
664,515	464,21
664,702	433,49
664,89	443,73
665,078	396,62
665,265	425,29
665,453	437,58
665,64	388,43
665,828	476,49
666,015	474,45
666,203	402,77
666,39	501,07
666,578	408,91
666,765	425,29
666,952	560,46
667,14	433,49
667,327	474,45
667,515	406,86
667,702	480,59
667,889	431,44
668,077	400,72
668,264	470,35
668,451	413,01
668,638	476,49
668,826	386,38
669,013	470,35
669,2	546,12
669,388	474,45
669,575	402,77
669,762	331,09
669,949	466,25
670,136	990,53
670,323	423,25
670,511	302,42
670,698	333,14
670,885	441,68
671,072	433,49
671,259	388,43
671,446	376,14
671,633	339,28
671,82	337,23
672,007	441,68
672,194	429,39
672,381	361,81
672,568	490,83
672,755	386,38
672,942	425,29
673,129	488,78
673,316	421,2
673,503	466,25
673,69	421,2
673,877	482,64
674,064	519,5
674,251	445,77
674,437	427,34
674,624	458,06
674,811	458,06
674,998	347,47
675,185	331,09
675,372	458,06
675,558	468,3
675,745	408,91
675,932	462,16
676,119	314,7
676,305	370
676,492	437,58
676,679	333,14
676,865	425,29
677,052	357,71
677,239	419,15
677,425	404,82
677,612	441,68
677,798	388,43
677,985	322,9
678,172	468,3
678,358	413,01
678,545	372,05
678,731	413,01
678,918	339,28
679,104	359,76
679,291	601,42
679,477	355,66
679,664	279,89
679,85	429,39
680,036	386,38
680,223	296,27
680,409	408,91
680,596	370
680,782	380,24
680,968	451,92
681,155	331,09
681,341	392,53
681,527	476,49
681,714	441,68
681,9	370
682,086	357,71
682,272	402,77
682,459	353,62
682,645	466,25
682,831	386,38
683,017	453,97
683,204	376,14
683,39	458,06
683,576	370
683,762	335,18
683,948	333,14
684,134	329,04
684,32	329,04
684,506	339,28
684,693	404,82
684,879	279,89
685,065	308,56
685,251	251,22
685,437	238,93
685,623	267,6
685,809	232,79
685,995	189,78
686,181	255,31
686,366	255,31
686,552	222,55
686,738	206,16
686,924	335,18
687,11	294,22
687,296	314,7
687,482	302,42
687,668	212,31
687,853	146,77
688,039	230,74
688,225	230,74
688,411	200,02
688,597	363,86
688,782	329,04
688,968	265,55
689,154	230,74
689,34	273,75
689,525	333,14
689,711	308,56
689,897	365,9
690,082	249,17
690,268	265,55
690,454	236,88
690,639	288,08
690,825	275,79
691,01	253,27
691,196	230,74
691,381	261,46
691,567	224,59
691,753	265,55
691,938	216,4
692,124	191,83
692,309	255,31
692,494	232,79
692,68	261,46
692,865	298,32
693,051	294,22
693,236	298,32
693,422	335,18
693,607	253,27
693,792	240,98
693,978	263,51
694,163	240,98
694,348	218,45
694,534	286,03
694,719	281,94
694,904	212,31
695,089	281,94
695,275	234,83
695,46	234,83
695,645	236,88
695,83	294,22
696,016	265,55
696,201	267,6
696,386	265,55
696,571	273,75
696,756	159,06
696,941	214,35
697,126	128,34
697,311	232,79
697,497	249,17
697,682	226,64
697,867	271,7
698,052	292,18
698,237	294,22
698,422	191,83
698,607	206,16
698,792	228,69
698,977	298,32
699,162	236,88
699,347	238,93
699,531	300,37
699,716	292,18
699,901	298,32
700,086	257,36
700,271	232,79
700,456	269,65
700,641	273,75
700,825	154,96
701,01	314,7
701,195	255,31
701,38	326,99
701,565	314,7
701,749	208,21
701,934	228,69
702,119	380,24
702,303	181,59
702,488	269,65
702,673	294,22
702,857	273,75
703,042	224,59
703,227	290,13
703,411	228,69
703,596	376,14
703,78	263,51
703,965	247,12
704,15	197,97
704,334	243,03
704,519	183,63
704,703	273,75
704,888	206,16
705,072	146,77
705,257	218,45
705,441	232,79
705,625	394,58
705,81	189,78
705,994	179,54
706,179	230,74
706,363	271,7
706,547	259,41
706,732	370
706,916	228,69
707,1	273,75
707,285	312,66
707,469	245,07
707,653	247,12
707,837	175,44
708,022	277,84
708,206	339,28
708,39	189,78
708,574	230,74
708,759	240,98
708,943	245,07
709,127	279,89
709,311	243,03
709,495	286,03
709,679	232,79
709,863	212,31
710,047	267,6
710,231	310,61
710,415	181,59
710,6	214,35
710,784	236,88
710,968	157,01
711,152	179,54
711,336	175,44
711,519	238,93
711,703	222,55
711,887	224,59
712,071	212,31
712,255	296,27
712,439	281,94
712,623	322,9
712,807	275,79
712,991	275,79
713,174	263,51
713,358	232,79
713,542	302,42
713,726	189,78
713,91	236,88
714,093	288,08
714,277	290,13
714,461	224,59
714,645	191,83
714,828	154,96
715,012	238,93
715,196	245,07
715,379	189,78
715,563	167,25
715,747	197,97
715,93	73,04
716,114	62,8
716,297	95,57
716,481	189,78
716,664	142,68
716,848	126,29
717,031	19,8
717,215	91,48
717,398	77,14
717,582	103,76
717,765	142,68
717,949	101,72
718,132	120,15
718,316	64,85
718,499	99,67
718,682	177,49
718,866	101,72
719,049	159,06
719,233	140,63
719,416	118,1
719,599	128,34
719,782	163,15
719,966	128,34
720,149	130,39
720,332	165,2
720,515	99,67
720,699	159,06
720,882	179,54
721,065	161,11
721,248	130,39
721,431	132,44
721,615	40,28
721,798	138,58
721,981	167,25
722,164	83,28
722,347	130,39
722,53	206,16
722,713	109,91
722,896	118,1
723,079	177,49
723,262	159,06
723,445	232,79
723,628	93,52
723,811	154,96
723,994	99,67
724,177	189,78
724,36	165,2
724,543	146,77
724,726	64,85
724,909	134,48
725,091	189,78
725,274	101,72
725,457	138,58
725,64	36,18
725,823	163,15
726,006	85,33
726,188	83,28
726,371	212,31
726,554	142,68
726,737	64,85
726,919	109,91
727,102	148,82
727,285	126,29
727,467	118,1
727,65	144,72
727,833	142,68
728,015	179,54
728,198	157,01
728,38	103,76
728,563	167,25
728,746	48,47
728,928	128,34
729,111	114
729,293	93,52
729,476	138,58
729,658	136,53
729,841	167,25
730,023	202,07
730,205	126,29
730,388	85,33
730,57	163,15
730,753	165,2
730,935	183,63
731,117	183,63
731,3	114
731,482	44,37
731,664	140,63
731,847	154,96
732,029	212,31
732,211	159,06
732,394	83,28
732,576	60,76
732,758	238,93
732,94	157,01
733,122	200,02
733,305	183,63
733,487	103,76
733,669	109,91
733,851	159,06
734,033	177,49
734,215	140,63
734,397	150,87
734,58	159,06
734,762	150,87
734,944	150,87
735,126	107,86
735,308	208,21
735,49	93,52
735,672	103,76
735,854	195,92
736,036	206,16
736,218	214,35
736,399	154,96
736,581	179,54
736,763	187,73
736,945	179,54
737,127	165,2
737,309	222,55
737,491	175,44
737,672	181,59
737,854	68,95
738,036	157,01
738,218	173,39
738,4	44,37
738,581	187,73
738,763	126,29
738,945	167,25
739,127	157,01
739,308	68,95
739,49	85,33
739,672	105,81
739,853	159,06
740,035	163,15
740,216	179,54
740,398	200,02
740,58	132,44
740,761	146,77
740,943	214,35
741,124	150,87
741,306	122,2
741,487	124,24
741,669	116,05
741,85	232,79
742,032	165,2
742,213	161,11
742,394	134,48
742,576	234,83
742,757	222,55
742,939	159,06
743,12	118,1
743,301	163,15
743,483	134,48
743,664	81,24
743,845	154,96
744,027	189,78
744,208	208,21
744,389	126,29
744,57	134,48
744,752	214,35
744,933	212,31
745,114	146,77
745,295	134,48
745,476	128,34
745,657	91,48
745,839	171,35
746,02	232,79
746,201	142,68
746,382	171,35
746,563	222,55
746,744	111,96
746,925	97,62
747,106	187,73
747,287	163,15
747,468	173,39
747,649	167,25
747,83	114
748,011	200,02
748,192	214,35
748,373	173,39
748,554	60,76
748,735	183,63
748,915	130,39
749,096	200,02
749,277	230,74
749,458	142,68
749,639	191,83
749,82	216,4
750	132,44
750,181	157,01
750,362	124,24
750,543	212,31
750,723	163,15
750,904	183,63
751,085	152,91
751,265	107,86
751,446	109,91
751,627	159,06
751,807	93,52
751,988	148,82
752,169	179,54
752,349	177,49
752,53	77,14
752,71	62,8
752,891	181,59
753,071	134,48
753,252	93,52
753,432	148,82
753,613	210,26
753,793	247,12
753,974	189,78
754,154	159,06
754,334	232,79
754,515	99,67
754,695	118,1
754,876	234,83
755,056	253,27
755,236	189,78
755,417	154,96
755,597	245,07
755,777	181,59
755,957	148,82
756,138	212,31
756,318	140,63
756,498	71
756,678	154,96
756,859	101,72
757,039	163,15
757,219	179,54
757,399	85,33
757,579	107,86
757,759	73,04
757,939	-53,93
758,119	95,57
758,3	93,52
758,48	116,05
758,66	11,61
758,84	-33,45
759,02	77,14
759,2	-15,02
759,38	-27,31
759,56	109,91
759,74	1,37
759,919	-25,26
760,099	132,44
760,279	89,43
760,459	99,67
760,639	23,89
760,819	5,46
760,999	44,37
761,178	-17,07
761,358	-6,83
761,538	-4,78
761,718	11,61
761,898	44,37
762,077	40,28
762,257	44,37
762,437	75,09
762,616	54,61
762,796	-37,55
762,976	107,86
763,155	23,89
763,335	101,72
763,515	19,8
763,694	148,82
763,874	54,61
764,053	91,48
764,233	157,01
764,413	56,66
764,592	105,81
764,772	126,29
764,951	85,33
765,131	52,56
765,31	60,76
765,489	146,77
765,669	54,61
765,848	77,14
766,028	77,14
766,207	66,9
766,386	66,9
766,566	91,48
766,745	62,8
766,924	83,28
767,104	191,83
767,283	83,28
767,462	169,3
767,642	134,48
767,821	91,48
768	77,14
768,179	132,44
768,358	185,68
768,538	136,53
768,717	116,05
768,896	99,67
769,075	193,87
769,254	19,8
769,433	101,72
769,612	109,91
769,791	167,25
769,97	25,94
770,149	116,05
770,328	58,71
770,507	142,68
770,686	89,43
770,865	152,91
771,044	132,44
771,223	97,62
771,402	105,81
771,581	56,66
771,76	60,76
771,939	93,52
772,118	81,24
772,297	93,52
772,475	103,76
772,654	195,92
772,833	165,2
773,012	189,78
773,191	68,95
773,369	126,29
773,548	220,5
773,727	101,72
773,906	216,4
774,084	109,91
774,263	134,48
774,442	27,99
774,62	-0,68
774,799	114
774,977	114
775,156	150,87
775,335	107,86
775,513	64,85
775,692	50,52
775,87	236,88
776,049	58,71
776,227	118,1
776,406	109,91
776,584	109,91
776,763	48,47
776,941	-29,35
777,119	19,8
777,298	-41,64
777,476	167,25
777,655	68,95
777,833	64,85
778,011	50,52
778,19	142,68
778,368	85,33
778,546	97,62
778,725	144,72
778,903	52,56
779,081	52,56
779,259	73,04
779,437	134,48
779,616	73,04
779,794	36,18
779,972	230,74
780,15	83,28
780,328	89,43
780,506	101,72
780,685	52,56
780,863	36,18
781,041	25,94
781,219	66,9
781,397	173,39
781,575	134,48
781,753	27,99
781,931	163,15
782,109	134,48
782,287	60,76
782,465	75,09
782,643	25,94
782,82	75,09
782,998	89,43
783,176	77,14
783,354	-4,78
783,532	99,67
783,71	50,52
783,888	-4,78
784,065	54,61
784,243	89,43
784,421	81,24
784,599	138,58
784,776	81,24
784,954	46,42
785,132	60,76
785,31	54,61
785,487	118,1
785,665	-25,26
785,842	116,05
786,02	163,15
786,198	52,56
786,375	32,08
786,553	52,56
786,73	-6,83
786,908	73,04
787,085	136,53
787,263	-29,35
787,44	71
787,618	89,43
787,795	-45,74
787,973	-72,36
788,15	-4,78
788,328	44,37
788,505	40,28
788,682	73,04
788,86	38,23
789,037	66,9
789,215	56,66
789,392	9,56
789,569	36,18
789,746	32,08
789,924	11,61
790,101	62,8
790,278	58,71
790,455	54,61
790,633	107,86
790,81	15,7
790,987	3,41
791,164	66,9
791,341	-21,16
791,518	-43,69
791,695	103,76
791,873	54,61
792,05	17,75
792,227	27,99
792,404	68,95
792,581	7,51
792,758	107,86
792,935	7,51
793,112	77,14
793,289	38,23
793,466	-8,87
793,643	-49,83
793,82	54,61
793,996	-15,02
794,173	83,28
794,35	-0,68
794,527	118,1
794,704	73,04
794,881	19,8
795,057	52,56
795,234	-21,16
795,411	107,86
795,588	11,61
795,765	19,8
795,941	-4,78
796,118	15,7
796,295	122,2
796,471	50,52
796,648	13,65
796,825	128,34
797,001	27,99
797,178	9,56
797,354	105,81
797,531	75,09
797,708	21,85
797,884	116,05
798,061	58,71
798,237	-4,78
798,414	-15,02
798,59	75,09
798,767	142,68
798,943	99,67
799,119	81,24
799,296	44,37
799,472	83,28
799,649	36,18
799,825	34,13
800,001	-29,35
800,178	-0,68
800,354	64,85
800,53	60,76
800,707	44,37
800,883	85,33
801,059	64,85
801,235	71
801,411	-8,87
801,588	-29,35
801,764	36,18
801,94	-8,87
802,116	25,94
802,292	7,51
802,468	27,99
802,645	68,95
802,821	101,72
802,997	32,08
803,173	-37,55
803,349	77,14
803,525	60,76
803,701	27,99
803,877	-10,92
804,053	-4,78
804,229	34,13
804,405	21,85
804,581	50,52
804,756	7,51
804,932	-53,93
805,108	11,61
805,284	-6,83
805,46	-8,87
805,636	19,8
805,812	-90,79
805,987	32,08
806,163	-25,26
806,339	140,63
806,515	-12,97
806,69	36,18
806,866	73,04
807,042	48,47
807,217	30,04
807,393	-55,98
807,569	-21,16
807,744	95,57
807,92	159,06
808,096	50,52
808,271	52,56
808,447	13,65
808,622	-39,59
808,798	42,32
808,973	-47,79
809,149	27,99
809,324	3,41
809,5	-51,88
809,675	-39,59
809,851	17,75
810,026	27,99
810,201	25,94
810,377	23,89
810,552	7,51
810,728	48,47
810,903	7,51
811,078	-4,78
811,253	58,71
811,429	-58,03
811,604	-33,45
811,779	11,61
811,955	-0,68
812,13	-8,87
812,305	73,04
812,48	17,75
812,655	93,52
812,83	111,96
813,006	17,75
813,181	-0,68
813,356	-45,74
813,531	-111,27
813,706	36,18
813,881	-55,98
814,056	27,99
814,231	-23,21
814,406	-82,6
814,581	-82,6
814,756	3,41
814,931	-12,97
815,106	21,85
815,281	23,89
815,456	3,41
815,631	1,37
815,805	25,94
815,98	-70,31
816,155	-17,07
816,33	-0,68
816,505	-135,85
816,68	83,28
816,854	-29,35
817,029	-15,02
817,204	-12,97
817,379	-33,45
817,553	25,94
817,728	-0,68
817,903	3,41
818,077	54,61
818,252	-62,12
818,427	13,65
818,601	60,76
818,776	36,18
818,95	-119,46
819,125	97,62
819,299	9,56
819,474	44,37
819,648	-27,31
819,823	79,19
819,997	-17,07
820,172	-31,4
820,346	25,94
820,521	-25,26
820,695	-92,84
820,87	-4,78
821,044	-33,45
821,218	42,32
821,393	109,91
821,567	-43,69
821,741	-33,45
821,916	-53,93
822,09	15,7
822,264	-0,68
822,438	-86,7
822,613	11,61
822,787	105,81
822,961	1,37
823,135	30,04
823,309	-33,45
823,483	-21,16
823,658	-0,68
823,832	93,52
824,006	-35,5
824,18	60,76
824,354	-0,68
824,528	-53,93
824,702	56,66
824,876	-41,64
825,05	17,75
825,224	13,65
825,398	19,8
825,572	-21,16
825,746	-29,35
825,92	58,71
826,093	-45,74
826,267	27,99
826,441	5,46
826,615	44,37
826,789	25,94
826,963	-0,68
827,136	-19,11
827,31	30,04
827,484	-23,21
827,658	-105,13
827,831	-31,4
828,005	-72,36
828,179	-33,45
828,353	36,18
828,526	-15,02
828,7	71
828,873	-33,45
829,047	-84,65
829,221	-25,26
829,394	-49,83
829,568	13,65
829,741	-15,02
829,915	-51,88
830,088	68,95
830,262	5,46
830,435	-64,17
830,609	60,76
830,782	13,65
830,956	-2,73
831,129	27,99
831,302	-29,35
831,476	-43,69
831,649	-105,13
831,822	-0,68
831,996	19,8
832,169	-12,97
832,342	-41,64
832,516	60,76
832,689	-8,87
832,862	-29,35
833,035	60,76
833,209	109,91
833,382	-31,4
833,555	-45,74
833,728	15,7
833,901	-82,6
834,074	52,56
834,247	-0,68
834,42	25,94
834,594	-78,51
834,767	-17,07
834,94	-21,16
835,113	109,91
835,286	-4,78
835,459	40,28
835,632	-31,4
835,805	36,18
835,977	-0,68
836,15	34,13
836,323	-45,74
836,496	68,95
836,669	-29,35
836,842	34,13
837,015	75,09
837,188	23,89
837,36	46,42
837,533	60,76
837,706	-62,12
837,879	25,94
838,051	-62,12
838,224	89,43
838,397	-29,35
838,569	-10,92
838,742	-21,16
838,915	1,37
839,087	75,09
839,26	-15,02
839,433	44,37
839,605	142,68
839,778	-43,69
839,95	97,62
840,123	-51,88
840,295	68,95
840,468	-33,45
840,64	-41,64
840,813	68,95
840,985	42,32
841,158	-35,5
841,33	30,04
841,502	32,08
841,675	-6,83
841,847	23,89
842,019	-4,78
842,192	-45,74
842,364	-25,26
842,536	32,08
842,709	46,42
842,881	25,94
843,053	-4,78
843,225	-33,45
843,398	71
843,57	7,51
843,742	-51,88
843,914	66,9
844,086	83,28
844,258	-86,7
844,43	58,71
844,602	99,67
844,775	-27,31
844,947	7,51
845,119	-58,03
845,291	126,29
845,463	66,9
845,635	-12,97
845,807	-0,68
845,979	-45,74
846,15	50,52
846,322	-51,88
846,494	-27,31
846,666	44,37
846,838	48,47
847,01	-12,97
847,182	-6,83
847,354	50,52
847,525	56,66
847,697	-6,83
847,869	15,7
848,041	40,28
848,212	56,66
848,384	-64,17
848,556	15,7
848,727	-2,73
848,899	-41,64
849,071	-15,02
849,242	13,65
849,414	38,23
849,585	7,51
849,757	19,8
849,929	-23,21
850,1	-60,07
850,272	44,37
850,443	25,94
850,615	50,52
850,786	7,51
850,958	-29,35
851,129	75,09
851,3	99,67
851,472	-21,16
851,643	-76,46
851,815	7,51
851,986	95,57
852,157	44,37
852,329	50,52
852,5	-64,17
852,671	83,28
852,842	-21,16
853,014	36,18
853,185	56,66
853,356	-29,35
853,527	52,56
853,698	42,32
853,87	-19,11
854,041	19,8
854,212	34,13
854,383	1,37
854,554	-21,16
854,725	146,77
854,896	-12,97
855,067	81,24
855,238	-53,93
855,409	-0,68
855,58	-39,59
855,751	101,72
855,922	-21,16
856,093	167,25
856,264	-105,13
856,435	38,23
856,606	73,04
856,777	44,37
856,948	23,89
857,118	-0,68
857,289	83,28
857,46	77,14
857,631	11,61
857,802	46,42
857,972	62,8
858,143	122,2
858,314	-8,87
858,484	-53,93
858,655	-45,74
858,826	15,7
858,996	15,7
859,167	81,24
859,338	-4,78
859,508	-23,21
859,679	-70,31
859,849	7,51
860,02	19,8
860,19	1,37
860,361	23,89
860,531	-21,16
860,702	111,96
860,872	42,32
861,043	-33,45
861,213	50,52
861,384	23,89
861,554	-35,5
861,724	-113,32
861,895	-4,78
862,065	71
862,235	48,47
862,406	-15,02
862,576	-0,68
862,746	-74,41
862,916	-21,16
863,087	54,61
863,257	-0,68
863,427	-53,93
863,597	-6,83
863,767	44,37
863,937	-72,36
864,108	19,8
864,278	44,37
864,448	9,56
864,618	-45,74
864,788	3,41
864,958	44,37
865,128	-37,55
865,298	1,37
865,468	27,99
865,638	27,99
865,808	25,94
865,978	58,71
866,148	-64,17
866,318	-6,83
866,487	-17,07
866,657	11,61
866,827	73,04
866,997	-10,92
867,167	19,8
867,337	73,04
867,506	23,89
867,676	15,7
867,846	-53,93
868,016	23,89
868,185	-21,16
868,355	32,08
868,525	27,99
868,694	-25,26
868,864	30,04
869,034	-6,83
869,203	11,61
869,373	19,8
869,542	27,99
869,712	-43,69
869,881	38,23
870,051	32,08
870,22	38,23
870,39	44,37
870,559	-4,78
870,729	-45,74
870,898	19,8
871,068	-41,64
871,237	36,18
871,406	-39,59
871,576	7,51
871,745	-68,27
871,914	-41,64
872,084	11,61
872,253	-12,97
872,422	-37,55
872,591	60,76
872,761	-31,4
872,93	378,19
873,099	-84,65
873,268	34,13
873,437	15,7
873,607	3,41
873,776	-33,45
873,945	-15,02
874,114	-41,64
874,283	-49,83
874,452	11,61
874,621	1,37
874,79	68,95
874,959	64,85
875,128	27,99
875,297	7,51
875,466	81,24
875,635	89,43
875,804	-45,74
875,973	-37,55
876,142	21,85
876,31	-15,02
876,479	7,51
876,648	56,66
876,817	-17,07
876,986	19,8
877,155	42,32
877,323	34,13
877,492	17,75
877,661	109,91
877,829	-25,26
877,998	-41,64
878,167	-12,97
878,335	-121,51
878,504	-41,64
878,673	23,89
878,841	-62,12
879,01	-62,12
879,178	-53,93
879,347	-25,26
879,515	-62,12
879,684	32,08
879,852	-82,6
880,021	-37,55
880,189	-12,97
880,358	-31,4
880,526	99,67
880,695	3,41
880,863	9,56
881,031	-47,79
881,2	-6,83
881,368	-21,16
881,536	105,81
881,705	7,51
881,873	-12,97
882,041	15,7
882,21	-37,55
882,378	58,71
882,546	-43,69
882,714	-0,68
882,882	-10,92
883,05	-2,73
883,219	-58,03
883,387	3,41
883,555	-29,35
883,723	-68,27
883,891	-119,46
884,059	-74,41
884,227	-45,74
884,395	-41,64
884,563	9,56
884,731	-55,98
884,899	19,8
885,067	-8,87
885,235	11,61
885,403	44,37
885,571	-17,07
885,739	-51,88
