Data from Subt4__0__13-54-26-346.txt Node

Date: Wed Feb 12 13:54:26 CET 2025
User: Versuch 234
Spectrometer: USB4F03543
Trigger mode: 4
Integration Time (sec): 1,000000E-1
Scans to average: 1
Electric dark correction enabled: true
Nonlinearity correction enabled: false
Boxcar width: 0
XAxis mode: Wavelengths
Number of Pixels in Spectrum: 3648
>>>>>Begin Spectral Data<<<<<
179,969	21,16
180,181	21,16
180,394	21,16
180,606	-19,8
180,819	49,83
181,031	10,92
181,243	103,08
181,456	10,92
181,668	60,07
181,88	6,83
182,093	-1,37
182,305	-68,95
182,518	-60,76
182,73	-52,56
182,942	-77,14
183,155	25,26
183,367	43,69
183,579	39,59
183,791	43,69
184,004	25,26
184,216	-1,37
184,428	70,31
184,641	-38,23
184,853	-5,46
185,065	60,07
185,277	-60,76
185,49	39,59
185,702	-3,41
185,914	-15,7
186,126	-48,47
186,338	64,17
186,551	-17,75
186,763	103,08
186,975	10,92
187,187	-5,46
187,399	62,12
187,612	-42,32
187,824	25,26
188,036	111,27
188,248	-38,23
188,46	-19,8
188,672	58,03
188,885	60,07
189,097	62,12
189,309	8,87
189,521	-40,28
189,733	107,18
189,945	-44,37
190,157	-23,89
190,369	-30,04
190,581	66,22
190,794	-1,37
191,006	60,07
191,218	-99,67
191,43	-44,37
191,642	84,65
191,854	-44,37
192,066	88,75
192,278	-15,7
192,49	29,35
192,702	29,35
192,914	78,51
193,126	51,88
193,338	29,35
193,55	96,94
193,762	-23,89
193,974	-19,8
194,186	25,26
194,398	2,73
194,61	80,55
194,822	60,07
195,034	47,79
195,246	60,07
195,457	2,73
195,669	-13,65
195,881	55,98
196,093	15,02
196,305	37,55
196,517	41,64
196,729	137,9
196,941	-36,18
197,153	-38,23
197,365	90,79
197,576	92,84
197,788	0,68
198	119,46
198,212	86,7
198,424	-64,85
198,636	43,69
198,847	144,04
199,059	-27,99
199,271	103,08
199,483	45,74
199,695	-46,42
199,906	49,83
200,118	-50,52
200,33	0,68
200,542	-3,41
200,753	37,55
200,965	37,55
201,177	41,64
201,389	64,17
201,6	29,35
201,812	-48,47
202,024	-9,56
202,235	-7,51
202,447	64,17
202,659	80,55
202,871	21,16
203,082	51,88
203,294	127,66
203,506	-34,13
203,717	4,78
203,929	15,02
204,141	37,55
204,352	-27,99
204,564	58,03
204,775	4,78
204,987	-54,61
205,199	-36,18
205,41	29,35
205,622	72,36
205,833	78,51
206,045	-3,41
206,257	105,13
206,468	31,4
206,68	152,23
206,891	-7,51
207,103	-1,37
207,314	19,11
207,526	131,75
207,737	-21,85
207,949	43,69
208,16	39,59
208,372	58,03
208,583	-25,94
208,795	-7,51
209,006	58,03
209,218	41,64
209,429	94,89
209,641	53,93
209,852	10,92
210,064	78,51
210,275	76,46
210,487	109,23
210,698	-44,37
210,909	23,21
211,121	12,97
211,332	49,83
211,544	62,12
211,755	82,6
211,966	-7,51
212,178	-34,13
212,389	29,35
212,6	23,21
212,812	94,89
213,023	33,45
213,234	12,97
213,446	60,07
213,657	84,65
213,868	-83,28
214,08	27,31
214,291	35,5
214,502	37,55
214,714	-38,23
214,925	78,51
215,136	12,97
215,347	-15,7
215,559	41,64
215,77	-58,71
215,981	-52,56
216,192	31,4
216,404	-44,37
216,615	21,16
216,826	43,69
217,037	-13,65
217,249	62,12
217,46	21,16
217,671	72,36
217,882	82,6
218,093	-25,94
218,304	45,74
218,516	4,78
218,727	-25,94
218,938	21,16
219,149	-17,75
219,36	78,51
219,571	92,84
219,782	4,78
219,993	76,46
220,205	17,07
220,416	125,61
220,627	4,78
220,838	96,94
221,049	43,69
221,26	111,27
221,471	41,64
221,682	119,46
221,893	0,68
222,104	-23,89
222,315	45,74
222,526	31,4
222,737	31,4
222,948	-1,37
223,159	74,41
223,37	84,65
223,581	0,68
223,792	41,64
224,003	-54,61
224,214	21,16
224,425	19,11
224,636	103,08
224,847	41,64
225,058	-34,13
225,269	33,45
225,48	98,99
225,691	-27,99
225,902	-73,04
226,112	-11,61
226,323	29,35
226,534	70,31
226,745	51,88
226,956	-13,65
227,167	-79,19
227,378	76,46
227,589	-85,33
227,799	43,69
228,01	39,59
228,221	47,79
228,432	-7,51
228,643	4,78
228,853	74,41
229,064	55,98
229,275	62,12
229,486	31,4
229,697	33,45
229,907	-13,65
230,118	60,07
230,329	-103,76
230,54	68,27
230,75	10,92
230,961	-42,32
231,172	-85,33
231,383	-32,08
231,593	-62,8
231,804	0,68
232,015	45,74
232,225	29,35
232,436	2,73
232,647	-50,52
232,857	-34,13
233,068	82,6
233,279	0,68
233,489	12,97
233,7	-38,23
233,91	19,11
234,121	37,55
234,332	80,55
234,542	-32,08
234,753	-34,13
234,964	21,16
235,174	-17,75
235,385	37,55
235,595	74,41
235,806	119,46
236,016	8,87
236,227	-34,13
236,437	-3,41
236,648	-3,41
236,858	51,88
237,069	76,46
237,279	29,35
237,49	0,68
237,7	90,79
237,911	25,26
238,121	84,65
238,332	-5,46
238,542	88,75
238,753	68,27
238,963	12,97
239,174	76,46
239,384	12,97
239,595	-19,8
239,805	33,45
240,015	-3,41
240,226	113,32
240,436	84,65
240,647	0,68
240,857	-68,95
241,067	-30,04
241,278	-77,14
241,488	-32,08
241,698	0,68
241,909	0,68
242,119	51,88
242,329	-11,61
242,54	-27,99
242,75	94,89
242,96	21,16
243,171	-13,65
243,381	82,6
243,591	0,68
243,801	41,64
244,012	62,12
244,222	37,55
244,432	-19,8
244,642	-13,65
244,853	-60,76
245,063	66,22
245,273	2,73
245,483	12,97
245,694	37,55
245,904	0,68
246,114	94,89
246,324	-23,89
246,534	146,09
246,744	8,87
246,955	29,35
247,165	-23,89
247,375	70,31
247,585	-17,75
247,795	10,92
248,005	12,97
248,215	133,8
248,425	31,4
248,636	92,84
248,846	17,07
249,056	96,94
249,266	31,4
249,476	-54,61
249,686	78,51
249,896	139,94
250,106	-3,41
250,316	-21,84
250,526	82,6
250,736	-17,75
250,946	37,55
251,156	-38,23
251,366	-19,8
251,576	47,79
251,786	47,79
251,996	53,93
252,206	-11,61
252,416	78,51
252,626	70,31
252,836	49,83
253,046	-157,01
253,256	111,27
253,466	39,59
253,676	12,97
253,885	21,16
254,095	-11,61
254,305	33,45
254,515	82,6
254,725	-56,66
254,935	19,11
255,145	17,07
255,355	-17,75
255,564	49,83
255,774	-21,85
255,984	-64,85
256,194	64,17
256,404	-9,56
256,614	-30,04
256,823	25,26
257,033	60,07
257,243	-7,51
257,453	29,35
257,662	27,31
257,872	49,83
258,082	-13,65
258,292	-21,84
258,501	72,36
258,711	-19,8
258,921	-48,47
259,131	58,03
259,34	2,73
259,55	-3,41
259,76	58,03
259,969	115,37
260,179	111,27
260,389	-56,66
260,598	-38,23
260,808	135,85
261,018	29,35
261,227	66,22
261,437	-46,42
261,647	-13,65
261,856	-11,61
262,066	49,83
262,275	-58,71
262,485	-13,65
262,694	37,55
262,904	33,45
263,114	27,31
263,323	17,07
263,533	12,97
263,742	-44,37
263,952	-73,04
264,161	68,27
264,371	45,74
264,58	117,42
264,79	-89,43
264,999	-46,42
265,209	43,69
265,418	33,45
265,628	-48,47
265,837	-3,41
266,047	6,83
266,256	-11,61
266,466	111,27
266,675	-89,43
266,884	68,27
267,094	0,68
267,303	27,31
267,513	-44,37
267,722	-25,94
267,931	23,21
268,141	74,41
268,35	-13,65
268,559	-25,94
268,769	21,16
268,978	17,07
269,187	-56,66
269,397	58,03
269,606	148,14
269,815	12,97
270,025	33,45
270,234	-23,89
270,443	-56,66
270,653	58,03
270,862	45,74
271,071	-42,32
271,28	72,36
271,49	-52,56
271,699	-9,56
271,908	-48,47
272,117	-19,8
272,327	-62,8
272,536	21,16
272,745	35,5
272,954	70,31
273,163	103,08
273,372	58,03
273,582	-13,65
273,791	70,31
274	21,16
274,209	58,03
274,418	64,17
274,627	74,41
274,836	-5,46
275,046	35,5
275,255	35,5
275,464	-19,8
275,673	-73,04
275,882	12,97
276,091	103,08
276,3	-9,56
276,509	-52,56
276,718	113,32
276,927	55,98
277,136	27,31
277,345	12,97
277,554	-64,85
277,763	-3,41
277,972	8,87
278,181	-48,47
278,39	-13,65
278,599	-9,56
278,808	68,27
279,017	90,79
279,226	-5,46
279,435	-27,99
279,644	29,35
279,853	-27,99
280,062	27,31
280,271	76,46
280,48	-11,61
280,688	-15,7
280,897	115,37
281,106	53,93
281,315	6,83
281,524	129,7
281,733	15,02
281,942	80,55
282,151	12,97
282,359	66,22
282,568	-60,76
282,777	12,97
282,986	86,7
283,195	35,5
283,403	88,75
283,612	86,7
283,821	96,94
284,03	53,93
284,238	33,45
284,447	27,31
284,656	125,61
284,865	-27,99
285,073	43,69
285,282	-27,99
285,491	-38,23
285,699	29,35
285,908	-5,46
286,117	12,97
286,325	-30,04
286,534	-32,08
286,743	-1,37
286,951	82,6
287,16	29,35
287,369	21,16
287,577	37,55
287,786	86,7
287,995	21,16
288,203	2,73
288,412	80,55
288,62	107,18
288,829	51,88
289,037	-1,37
289,246	84,65
289,455	23,21
289,663	111,27
289,872	2,73
290,08	6,83
290,289	86,7
290,497	27,31
290,706	-36,18
290,914	2,73
291,123	10,92
291,331	76,46
291,54	10,92
291,748	35,5
291,957	21,16
292,165	119,46
292,373	43,69
292,582	-11,61
292,79	21,16
292,999	-5,46
293,207	45,74
293,415	60,07
293,624	31,4
293,832	8,87
294,041	-36,18
294,249	-11,61
294,457	-46,42
294,666	4,78
294,874	37,55
295,082	-71
295,291	37,55
295,499	6,83
295,707	6,83
295,915	-9,56
296,124	45,74
296,332	0,68
296,54	88,75
296,749	-23,89
296,957	58,03
297,165	82,6
297,373	29,35
297,581	27,31
297,79	51,88
297,998	-85,33
298,206	-11,61
298,414	64,17
298,622	4,78
298,831	101,03
299,039	-25,94
299,247	55,98
299,455	64,17
299,663	37,55
299,871	-11,61
300,08	-5,46
300,288	33,45
300,496	-40,28
300,704	25,26
300,912	94,89
301,12	-36,18
301,328	4,78
301,536	94,89
301,744	60,07
301,952	-32,08
302,16	-7,51
302,368	58,03
302,576	62,12
302,784	-13,65
302,992	55,98
303,2	-25,94
303,408	8,87
303,616	-1,37
303,824	17,07
304,032	17,07
304,24	80,55
304,448	-15,7
304,656	-19,8
304,864	68,27
305,072	-7,51
305,28	-17,75
305,488	-15,7
305,696	-1,37
305,904	41,64
306,111	-77,14
306,319	8,87
306,527	-1,37
306,735	17,07
306,943	-44,37
307,151	-3,41
307,359	8,87
307,566	-9,56
307,774	92,84
307,982	-13,65
308,19	-7,51
308,398	-13,65
308,605	49,83
308,813	-3,41
309,021	86,7
309,229	70,31
309,436	19,11
309,644	12,97
309,852	66,22
310,06	-19,8
310,267	-15,7
310,475	29,35
310,683	-15,7
310,89	-64,85
311,098	-9,56
311,306	53,93
311,513	53,93
311,721	-25,94
311,929	-7,51
312,136	-1,37
312,344	55,98
312,552	39,59
312,759	-23,89
312,967	78,51
313,174	8,87
313,382	12,97
313,589	0,68
313,797	86,7
314,005	35,5
314,212	-1,37
314,42	29,35
314,627	-5,46
314,835	80,55
315,042	31,4
315,25	-13,65
315,457	17,07
315,665	-19,8
315,872	88,75
316,08	141,99
316,287	19,11
316,495	21,16
316,702	0,68
316,909	-44,37
317,117	55,98
317,324	15,02
317,532	31,4
317,739	-36,18
317,946	-5,46
318,154	-34,13
318,361	-11,61
318,569	125,61
318,776	51,88
318,983	98,99
319,191	84,65
319,398	-44,37
319,605	-32,08
319,813	-15,7
320,02	-19,8
320,227	-32,08
320,434	43,69
320,642	78,51
320,849	19,11
321,056	-40,28
321,264	35,5
321,471	2,73
321,678	-21,85
321,885	27,31
322,092	62,12
322,3	-19,8
322,507	-3,41
322,714	-32,08
322,921	-32,08
323,128	15,02
323,336	55,98
323,543	-1,37
323,75	35,5
323,957	41,64
324,164	68,27
324,371	4,78
324,578	-34,13
324,786	-7,51
324,993	-58,71
325,2	25,26
325,407	12,97
325,614	37,55
325,821	-48,47
326,028	8,87
326,235	27,31
326,442	-54,61
326,649	12,97
326,856	25,26
327,063	4,78
327,27	-44,37
327,477	15,02
327,684	39,59
327,891	12,97
328,098	31,4
328,305	76,46
328,512	29,35
328,719	-9,56
328,926	43,69
329,133	80,55
329,34	92,84
329,546	35,5
329,753	72,36
329,96	49,83
330,167	33,45
330,374	-58,71
330,581	-15,7
330,788	21,16
330,995	-40,28
331,201	-71
331,408	-111,96
331,615	53,93
331,822	29,35
332,029	-38,23
332,235	45,74
332,442	41,64
332,649	31,4
332,856	74,41
333,062	8,87
333,269	103,08
333,476	58,03
333,683	58,03
333,889	-9,56
334,096	137,9
334,303	27,31
334,509	76,46
334,716	-17,75
334,923	53,93
335,129	90,79
335,336	49,83
335,543	-11,61
335,749	-60,76
335,956	35,5
336,163	-3,41
336,369	15,02
336,576	-52,56
336,782	-81,24
336,989	47,79
337,196	49,83
337,402	47,79
337,609	41,64
337,815	33,45
338,022	-17,75
338,228	49,83
338,435	51,88
338,641	25,26
338,848	31,4
339,054	37,55
339,261	64,17
339,467	-11,61
339,674	127,66
339,88	15,02
340,087	33,45
340,293	58,03
340,5	-11,61
340,706	33,45
340,912	8,87
341,119	25,26
341,325	29,35
341,532	2,73
341,738	2,73
341,944	15,02
342,151	12,97
342,357	53,93
342,563	-15,7
342,77	41,64
342,976	58,03
343,182	78,51
343,389	-23,89
343,595	17,07
343,801	4,78
344,007	90,79
344,214	86,7
344,42	-91,48
344,626	47,79
344,832	-17,75
345,039	-7,51
345,245	-36,18
345,451	39,59
345,657	-52,56
345,864	27,31
346,07	31,4
346,276	144,04
346,482	-85,33
346,688	35,5
346,894	-17,75
347,1	-25,94
347,307	88,75
347,513	-46,42
347,719	-87,38
347,925	-5,46
348,131	39,59
348,337	62,12
348,543	27,31
348,749	-15,7
348,955	-1,37
349,161	103,08
349,367	27,31
349,573	-11,61
349,779	35,5
349,985	-58,71
350,191	-27,99
350,397	47,79
350,603	27,31
350,809	17,07
351,015	70,31
351,221	0,68
351,427	-23,89
351,633	4,78
351,839	27,31
352,045	78,51
352,251	43,69
352,457	-23,89
352,663	47,79
352,869	12,97
353,075	60,07
353,28	43,69
353,486	86,7
353,692	-40,28
353,898	-89,43
354,104	19,11
354,31	15,02
354,515	92,84
354,721	41,64
354,927	-1,37
355,133	-5,46
355,339	66,22
355,544	115,37
355,75	-9,56
355,956	-1,37
356,162	21,16
356,367	21,16
356,573	-89,43
356,779	21,16
356,984	78,51
357,19	-79,19
357,396	-19,8
357,602	-71
357,807	-32,08
358,013	21,16
358,218	51,88
358,424	35,5
358,63	-7,51
358,835	-83,28
359,041	86,7
359,247	113,32
359,452	86,7
359,658	107,18
359,863	21,16
360,069	0,68
360,274	53,93
360,48	27,31
360,685	-25,94
360,891	17,07
361,097	-3,41
361,302	-34,13
361,508	37,55
361,713	-5,46
361,918	-13,65
362,124	10,92
362,329	-54,61
362,535	90,79
362,74	2,73
362,946	-52,56
363,151	41,64
363,357	-40,28
363,562	19,11
363,767	49,83
363,973	27,31
364,178	31,4
364,383	8,87
364,589	86,7
364,794	19,11
365	-1,37
365,205	-32,08
365,41	66,22
365,615	-19,8
365,821	80,55
366,026	62,12
366,231	170,66
366,437	10,92
366,642	-25,94
366,847	88,75
367,052	25,26
367,258	70,31
367,463	-58,71
367,668	-42,32
367,873	-19,8
368,078	21,16
368,284	152,23
368,489	-7,51
368,694	23,21
368,899	66,22
369,104	60,07
369,309	15,02
369,515	96,94
369,72	21,16
369,925	-13,65
370,13	-64,85
370,335	111,27
370,54	0,68
370,745	-30,04
370,95	-19,8
371,155	-52,56
371,36	152,23
371,565	-17,75
371,77	-3,41
371,975	31,4
372,18	94,89
372,385	15,02
372,59	125,61
372,795	8,87
373	31,4
373,205	-19,8
373,41	4,78
373,615	-50,52
373,82	-40,28
374,025	-32,08
374,23	-21,85
374,435	29,35
374,64	105,13
374,845	-40,28
375,05	-34,13
375,254	-44,37
375,459	47,79
375,664	58,03
375,869	37,55
376,074	-11,61
376,279	68,27
376,483	41,64
376,688	0,68
376,893	-21,85
377,098	39,59
377,303	-38,23
377,507	0,68
377,712	8,87
377,917	25,26
378,122	84,65
378,326	-11,61
378,531	58,03
378,736	-9,56
378,94	23,21
379,145	70,31
379,35	-54,61
379,554	31,4
379,759	37,55
379,964	-25,94
380,168	35,5
380,373	17,07
380,578	137,9
380,782	-64,85
380,987	31,4
381,191	-79,19
381,396	94,89
381,601	27,31
381,805	-27,99
382,01	-36,18
382,214	21,16
382,419	-17,75
382,623	-85,33
382,828	21,16
383,032	51,88
383,237	68,27
383,441	0,68
383,646	6,83
383,85	-19,8
384,055	33,45
384,259	45,74
384,464	39,59
384,668	113,32
384,872	33,45
385,077	33,45
385,281	-56,66
385,486	27,31
385,69	0,68
385,894	4,78
386,099	66,22
386,303	47,79
386,507	66,22
386,712	31,4
386,916	82,6
387,12	199,34
387,325	-21,85
387,529	66,22
387,733	45,74
387,937	-58,71
388,142	-68,95
388,346	-7,51
388,55	43,69
388,754	6,83
388,959	-3,41
389,163	10,92
389,367	-30,04
389,571	-44,37
389,775	37,55
389,98	-73,04
390,184	-36,18
390,388	21,16
390,592	-21,85
390,796	25,26
391	105,13
391,204	19,11
391,409	27,31
391,613	4,78
391,817	15,02
392,021	51,88
392,225	33,45
392,429	-5,46
392,633	94,89
392,837	-60,76
393,041	-36,18
393,245	-44,37
393,449	15,02
393,653	-13,65
393,857	33,45
394,061	4,78
394,265	53,93
394,469	-7,51
394,673	-52,56
394,877	15,02
395,081	60,07
395,285	25,26
395,489	70,31
395,693	-56,66
395,896	15,02
396,1	31,4
396,304	82,6
396,508	62,12
396,712	76,46
396,916	109,23
397,12	10,92
397,323	82,6
397,527	-11,61
397,731	-11,61
397,935	62,12
398,139	10,92
398,342	-44,37
398,546	-27,99
398,75	0,68
398,954	105,13
399,157	29,35
399,361	39,59
399,565	33,45
399,769	74,41
399,972	25,26
400,176	51,88
400,38	-44,37
400,583	29,35
400,787	25,26
400,991	-42,32
401,194	2,73
401,398	119,46
401,601	-9,56
401,805	45,74
402,009	92,84
402,212	-62,8
402,416	84,65
402,619	27,31
402,823	62,12
403,026	33,45
403,23	94,89
403,433	74,41
403,637	10,92
403,841	15,02
404,044	-25,94
404,247	-34,13
404,451	58,03
404,654	21,16
404,858	8,87
405,061	2,73
405,265	-5,46
405,468	-89,43
405,672	109,23
405,875	19,11
406,078	64,17
406,282	-66,9
406,485	37,55
406,689	10,92
406,892	-60,76
407,095	25,26
407,299	66,22
407,502	-38,23
407,705	12,97
407,909	-46,42
408,112	-1,37
408,315	35,5
408,518	111,27
408,722	-30,04
408,925	70,31
409,128	62,12
409,331	35,5
409,535	8,87
409,738	-21,85
409,941	64,17
410,144	-11,61
410,347	27,31
410,551	39,59
410,754	86,7
410,957	-54,61
411,16	17,07
411,363	10,92
411,566	2,73
411,769	70,31
411,973	53,93
412,176	43,69
412,379	29,35
412,582	107,18
412,785	-75,09
412,988	74,41
413,191	49,83
413,394	2,73
413,597	-9,56
413,8	58,03
414,003	-25,94
414,206	35,5
414,409	37,55
414,612	111,27
414,815	94,89
415,018	-17,75
415,221	-34,13
415,424	-23,89
415,627	-73,04
415,83	21,16
416,033	88,75
416,235	-13,65
416,438	6,83
416,641	103,08
416,844	70,31
417,047	-19,8
417,25	92,84
417,453	17,07
417,655	4,78
417,858	-19,8
418,061	-52,56
418,264	98,99
418,467	-42,32
418,669	15,02
418,872	21,16
419,075	-13,65
419,278	-52,56
419,48	17,07
419,683	-30,04
419,886	0,68
420,089	-21,85
420,291	60,07
420,494	37,55
420,697	37,55
420,899	6,83
421,102	62,12
421,305	70,31
421,507	-19,8
421,71	25,26
421,912	-95,57
422,115	66,22
422,318	62,12
422,52	-23,89
422,723	96,94
422,925	41,64
423,128	-73,04
423,33	39,59
423,533	-19,8
423,735	55,98
423,938	-38,23
424,14	29,35
424,343	-87,38
424,545	47,79
424,748	43,69
424,95	-64,85
425,153	6,83
425,355	23,21
425,558	33,45
425,76	-3,41
425,962	101,03
426,165	4,78
426,367	-9,56
426,57	68,27
426,772	41,64
426,974	-138,58
427,177	-23,89
427,379	-27,99
427,581	88,75
427,784	45,74
427,986	21,16
428,188	-23,89
428,39	74,41
428,593	-19,8
428,795	12,97
428,997	-9,56
429,2	2,73
429,402	133,8
429,604	2,73
429,806	23,21
430,008	113,32
430,211	45,74
430,413	51,88
430,615	12,97
430,817	154,28
431,019	103,08
431,221	66,22
431,423	37,55
431,626	70,31
431,828	53,93
432,03	-34,13
432,232	60,07
432,434	49,83
432,636	-87,38
432,838	49,83
433,04	-3,41
433,242	-77,14
433,444	-42,32
433,646	37,55
433,848	64,17
434,05	-7,51
434,252	-66,9
434,454	23,21
434,656	125,61
434,858	-136,53
435,06	-11,61
435,262	-38,23
435,464	-25,94
435,666	49,83
435,868	-23,89
436,07	-52,56
436,271	-21,84
436,473	109,23
436,675	64,17
436,877	-11,61
437,079	-66,9
437,281	2,73
437,482	78,51
437,684	53,93
437,886	-15,7
438,088	60,07
438,29	-42,32
438,491	39,59
438,693	-5,46
438,895	-34,13
439,097	49,83
439,298	-13,65
439,5	19,11
439,702	4,78
439,903	23,21
440,105	55,98
440,307	-38,23
440,508	-27,99
440,71	10,92
440,912	64,17
441,113	12,97
441,315	39,59
441,517	70,31
441,718	8,87
441,92	-11,61
442,121	58,03
442,323	4,78
442,524	58,03
442,726	-42,32
442,928	-77,14
443,129	64,17
443,331	12,97
443,532	-73,04
443,734	6,83
443,935	-44,37
444,136	45,74
444,338	45,74
444,539	-73,04
444,741	17,07
444,942	72,36
445,144	-19,8
445,345	19,11
445,546	70,31
445,748	6,83
445,949	39,59
446,151	8,87
446,352	37,55
446,553	94,89
446,755	29,35
446,956	-21,84
447,157	29,35
447,359	-3,41
447,56	15,02
447,761	135,85
447,962	-60,76
448,164	-124,24
448,365	-27,99
448,566	-25,94
448,767	45,74
448,969	33,45
449,17	45,74
449,371	58,03
449,572	25,26
449,773	37,55
449,974	-9,56
450,176	-71
450,377	2,73
450,578	33,45
450,779	64,17
450,98	17,07
451,181	-9,56
451,382	-5,46
451,583	8,87
451,784	35,5
451,986	82,6
452,187	2,73
452,388	92,84
452,589	12,97
452,79	-58,71
452,991	51,88
453,192	10,92
453,393	86,7
453,594	74,41
453,795	-15,7
453,995	-15,7
454,196	53,93
454,397	-25,94
454,598	0,68
454,799	41,64
455	-66,9
455,201	84,65
455,402	55,98
455,603	-38,23
455,804	-32,08
456,004	33,45
456,205	-1,37
456,406	96,94
456,607	17,07
456,808	113,32
457,008	8,87
457,209	33,45
457,41	47,79
457,611	49,83
457,811	82,6
458,012	4,78
458,213	-21,84
458,414	-32,08
458,614	19,11
458,815	-9,56
459,016	23,21
459,216	-56,66
459,417	21,16
459,618	90,79
459,818	55,98
460,019	-3,41
460,22	15,02
460,42	-50,52
460,621	43,69
460,821	64,17
461,022	-19,8
461,223	-3,41
461,423	23,21
461,624	-32,08
461,824	60,07
462,025	29,35
462,225	8,87
462,426	-15,7
462,626	10,92
462,827	27,31
463,027	76,46
463,228	74,41
463,428	64,17
463,628	-19,8
463,829	107,18
464,029	62,12
464,23	70,31
464,43	55,98
464,63	17,07
464,831	62,12
465,031	-15,7
465,231	8,87
465,432	39,59
465,632	-19,8
465,832	-32,08
466,033	-23,89
466,233	-68,95
466,433	37,55
466,634	-21,85
466,834	-21,84
467,034	19,11
467,234	117,42
467,435	78,51
467,635	33,45
467,835	6,83
468,035	21,16
468,235	35,5
468,436	45,74
468,636	-64,85
468,836	27,31
469,036	-89,43
469,236	43,69
469,436	-1,37
469,636	0,68
469,836	-5,46
470,037	53,93
470,237	55,98
470,437	51,88
470,637	148,14
470,837	49,83
471,037	-40,28
471,237	43,69
471,437	-77,14
471,637	47,79
471,837	-38,23
472,037	-38,23
472,237	-38,23
472,437	6,83
472,637	-17,75
472,837	-3,41
473,036	-7,51
473,236	-17,75
473,436	2,73
473,636	58,03
473,836	41,64
474,036	51,88
474,236	72,36
474,436	17,07
474,635	21,16
474,835	-62,8
475,035	-1,37
475,235	78,51
475,435	21,16
475,634	-13,65
475,834	53,93
476,034	144,04
476,234	78,51
476,433	8,87
476,633	-42,32
476,833	-13,65
477,033	15,02
477,232	-36,18
477,432	86,7
477,632	29,35
477,831	51,88
478,031	-54,61
478,231	8,87
478,43	43,69
478,63	-60,76
478,829	-7,51
479,029	17,07
479,229	51,88
479,428	98,99
479,628	144,04
479,827	21,16
480,027	49,83
480,226	41,64
480,426	-21,84
480,625	-32,08
480,825	27,31
481,024	0,68
481,224	-17,75
481,423	17,07
481,623	-42,32
481,822	45,74
482,021	37,55
482,221	45,74
482,42	82,6
482,62	-27,99
482,819	19,11
483,018	21,16
483,218	-36,18
483,417	64,17
483,616	35,5
483,816	53,93
484,015	45,74
484,214	23,21
484,414	-15,7
484,613	58,03
484,812	-34,13
485,011	101,03
485,211	-83,28
485,41	66,22
485,609	-9,56
485,808	-46,42
486,008	-73,04
486,207	12,97
486,406	37,55
486,605	98,99
486,804	-30,04
487,003	94,89
487,203	-15,7
487,402	25,26
487,601	55,98
487,8	39,59
487,999	86,7
488,198	-19,8
488,397	-36,18
488,596	160,42
488,795	-23,89
488,994	-25,94
489,193	43,69
489,392	45,74
489,591	86,7
489,79	-9,56
489,989	39,59
490,188	12,97
490,387	43,69
490,586	94,89
490,785	-34,13
490,984	-1,37
491,183	17,07
491,382	39,59
491,581	88,75
491,779	84,65
491,978	27,31
492,177	84,65
492,376	-13,65
492,575	-13,65
492,774	25,26
492,972	43,69
493,171	-11,61
493,37	107,18
493,569	23,21
493,768	68,27
493,966	17,07
494,165	51,88
494,364	-30,04
494,563	84,65
494,761	58,03
494,96	12,97
495,159	29,35
495,357	4,78
495,556	-75,09
495,755	19,11
495,953	76,46
496,152	15,02
496,35	23,21
496,549	92,84
496,748	60,07
496,946	-3,41
497,145	131,75
497,343	37,55
497,542	-19,8
497,74	-85,33
497,939	35,5
498,137	-91,48
498,336	84,65
498,534	25,26
498,733	19,11
498,931	-1,37
499,13	152,23
499,328	127,66
499,527	23,21
499,725	8,87
499,924	-46,42
500,122	60,07
500,32	70,31
500,519	2,73
500,717	-15,7
500,915	33,45
501,114	27,31
501,312	-60,76
501,51	-62,8
501,709	33,45
501,907	19,11
502,105	15,02
502,304	49,83
502,502	-7,51
502,7	-3,41
502,898	-34,13
503,097	53,93
503,295	72,36
503,493	0,68
503,691	98,99
503,889	64,17
504,088	17,07
504,286	23,21
504,484	8,87
504,682	98,99
504,88	-23,89
505,078	45,74
505,276	17,07
505,474	-34,13
505,672	80,55
505,871	12,97
506,069	60,07
506,267	-36,18
506,465	74,41
506,663	90,79
506,861	15,02
507,059	41,64
507,257	94,89
507,455	41,64
507,653	-85,33
507,851	51,88
508,049	39,59
508,246	47,79
508,444	17,07
508,642	-1,37
508,84	94,89
509,038	-25,94
509,236	43,69
509,434	23,21
509,632	72,36
509,829	-71
510,027	-13,65
510,225	31,4
510,423	4,78
510,621	35,5
510,818	60,07
511,016	-58,71
511,214	86,7
511,412	115,37
511,609	47,79
511,807	-19,8
512,005	-54,61
512,203	60,07
512,4	101,03
512,598	148,14
512,796	66,22
512,993	-77,14
513,191	49,83
513,389	-19,8
513,586	76,46
513,784	-46,42
513,981	84,65
514,179	-27,99
514,377	21,16
514,574	70,31
514,772	72,36
514,969	-54,61
515,167	-48,47
515,364	-30,04
515,562	-25,94
515,759	131,75
515,957	31,4
516,154	-7,51
516,352	123,56
516,549	-13,65
516,746	72,36
516,944	33,45
517,141	31,4
517,339	103,08
517,536	39,59
517,733	4,78
517,931	-52,56
518,128	47,79
518,325	-56,66
518,523	4,78
518,72	-1,37
518,917	115,37
519,115	78,51
519,312	-36,18
519,509	82,6
519,707	62,12
519,904	29,35
520,101	-58,71
520,298	0,68
520,495	41,64
520,693	-21,84
520,89	-17,75
521,087	27,31
521,284	-13,65
521,481	107,18
521,678	39,59
521,876	-54,61
522,073	6,83
522,27	58,03
522,467	74,41
522,664	10,92
522,861	-91,48
523,058	17,07
523,255	-79,19
523,452	31,4
523,649	27,31
523,846	-79,19
524,043	29,35
524,24	47,79
524,437	-11,61
524,634	17,07
524,831	-7,51
525,028	-1,37
525,225	15,02
525,422	-19,8
525,619	-36,18
525,816	-13,65
526,013	64,17
526,209	15,02
526,406	-73,04
526,603	-11,61
526,8	0,68
526,997	47,79
527,194	-62,8
527,39	70,31
527,587	-58,71
527,784	-73,04
527,981	-9,56
528,177	41,64
528,374	12,97
528,571	43,69
528,768	6,83
528,964	25,26
529,161	47,79
529,358	-50,52
529,554	27,31
529,751	-11,61
529,948	37,55
530,144	23,21
530,341	31,4
530,537	4,78
530,734	92,84
530,931	51,88
531,127	39,59
531,324	-60,76
531,52	119,46
531,717	41,64
531,913	43,69
532,11	45,74
532,306	-44,37
532,503	15,02
532,699	37,55
532,896	-13,65
533,092	23,21
533,289	39,59
533,485	94,89
533,682	2,73
533,878	82,6
534,074	-42,32
534,271	74,41
534,467	0,68
534,664	-7,51
534,86	164,52
535,056	17,07
535,253	94,89
535,449	27,31
535,645	47,79
535,841	2,73
536,038	29,35
536,234	-36,18
536,43	27,31
536,626	-71
536,823	-36,18
537,019	21,16
537,215	51,88
537,411	70,31
537,607	60,07
537,804	37,55
538	0,68
538,196	-21,85
538,392	-42,32
538,588	-64,85
538,784	27,31
538,98	-21,85
539,176	31,4
539,373	123,56
539,569	86,7
539,765	33,45
539,961	-38,23
540,157	72,36
540,353	0,68
540,549	-75,09
540,745	4,78
540,941	-36,18
541,137	29,35
541,333	-9,56
541,528	-85,33
541,724	47,79
541,92	35,5
542,116	-9,56
542,312	37,55
542,508	41,64
542,704	-40,28
542,9	58,03
543,096	2,73
543,291	-11,61
543,487	62,12
543,683	10,92
543,879	10,92
544,075	-5,46
544,27	29,35
544,466	31,4
544,662	43,69
544,858	33,45
545,053	29,35
545,249	-7,51
545,445	105,13
545,64	33,45
545,836	17,07
546,032	-36,18
546,227	-30,04
546,423	94,89
546,619	37,55
546,814	-17,75
547,01	-3,41
547,205	-56,66
547,401	-23,89
547,597	-52,56
547,792	-91,48
547,988	-34,13
548,183	-124,24
548,379	84,65
548,574	39,59
548,77	-11,61
548,965	72,36
549,161	-30,04
549,356	-42,32
549,552	15,02
549,747	-11,61
549,942	47,79
550,138	17,07
550,333	39,59
550,529	90,79
550,724	182,95
550,919	98,99
551,115	62,12
551,31	74,41
551,505	-11,61
551,701	78,51
551,896	-44,37
552,091	41,64
552,287	78,51
552,482	-42,32
552,677	37,55
552,872	94,89
553,067	19,11
553,263	33,45
553,458	-1,37
553,653	98,99
553,848	62,12
554,043	4,78
554,239	41,64
554,434	-62,8
554,629	29,35
554,824	-27,99
555,019	-21,85
555,214	8,87
555,409	-34,13
555,604	64,17
555,799	-40,28
555,994	19,11
556,189	-5,46
556,384	-21,85
556,579	-11,61
556,774	58,03
556,969	82,6
557,164	125,61
557,359	35,5
557,554	4,78
557,749	109,23
557,944	25,26
558,139	-13,65
558,334	111,27
558,529	-3,41
558,724	10,92
558,918	-77,14
559,113	-122,2
559,308	2,73
559,503	15,02
559,698	-11,61
559,893	6,83
560,087	-68,95
560,282	62,12
560,477	-109,91
560,672	-34,13
560,866	39,59
561,061	60,07
561,256	86,7
561,45	8,87
561,645	8,87
561,84	-32,08
562,034	43,69
562,229	47,79
562,424	-60,76
562,618	45,74
562,813	-62,8
563,008	39,59
563,202	-44,37
563,397	-52,56
563,591	-56,66
563,786	4,78
563,98	103,08
564,175	47,79
564,369	21,16
564,564	35,5
564,758	88,75
564,953	111,27
565,147	68,27
565,342	21,16
565,536	82,6
565,731	8,87
565,925	-1,37
566,119	82,6
566,314	6,83
566,508	-52,56
566,703	45,74
566,897	41,64
567,091	-19,8
567,286	39,59
567,48	-85,33
567,674	80,55
567,868	-25,94
568,063	62,12
568,257	35,5
568,451	23,21
568,646	0,68
568,84	41,64
569,034	2,73
569,228	78,51
569,422	58,03
569,616	66,22
569,811	58,03
570,005	17,07
570,199	21,16
570,393	86,7
570,587	-7,51
570,781	53,93
570,975	19,11
571,169	-46,42
571,364	101,03
571,558	86,7
571,752	74,41
571,946	-93,52
572,14	-19,8
572,334	37,55
572,528	-40,28
572,722	39,59
572,916	-3,41
573,109	51,88
573,303	-52,56
573,497	31,4
573,691	74,41
573,885	-3,41
574,079	115,37
574,273	-17,75
574,467	17,07
574,661	-48,47
574,854	45,74
575,048	10,92
575,242	10,92
575,436	6,83
575,63	27,31
575,823	123,56
576,017	-13,65
576,211	-54,61
576,405	55,98
576,598	19,11
576,792	-48,47
576,986	-32,08
577,18	33,45
577,373	35,5
577,567	-1,37
577,761	35,5
577,954	96,94
578,148	12,97
578,341	-46,42
578,535	-58,71
578,729	-32,08
578,922	0,68
579,116	-38,23
579,309	10,92
579,503	31,4
579,696	-27,99
579,89	78,51
580,083	-46,42
580,277	49,83
580,47	-15,7
580,664	-44,37
580,857	98,99
581,051	94,89
581,244	-17,75
581,437	53,93
581,631	-23,89
581,824	51,88
582,018	-54,61
582,211	172,71
582,404	92,84
582,598	60,07
582,791	-30,04
582,984	111,27
583,178	-73,04
583,371	78,51
583,564	-25,94
583,757	121,51
583,951	39,59
584,144	80,55
584,337	33,45
584,53	-13,65
584,723	-15,7
584,917	-38,23
585,11	23,21
585,303	-19,8
585,496	6,83
585,689	31,4
585,882	45,74
586,075	17,07
586,268	76,46
586,462	-19,8
586,655	-60,76
586,848	6,83
587,041	70,31
587,234	4,78
587,427	62,12
587,62	-75,09
587,813	43,69
588,006	111,27
588,199	2,73
588,392	68,27
588,585	21,16
588,777	107,18
588,97	60,07
589,163	-34,13
589,356	68,27
589,549	-52,56
589,742	45,74
589,935	27,31
590,128	49,83
590,32	70,31
590,513	-27,99
590,706	39,59
590,899	-15,7
591,092	-27,99
591,284	10,92
591,477	-9,56
591,67	141,99
591,863	-87,38
592,055	55,98
592,248	-13,65
592,441	96,94
592,633	74,41
592,826	-105,81
593,019	-1,37
593,211	111,27
593,404	-44,37
593,596	-11,61
593,789	-27,99
593,982	-7,51
594,174	10,92
594,367	12,97
594,559	-32,08
594,752	-46,42
594,944	-34,13
595,137	4,78
595,329	55,98
595,522	31,4
595,714	37,55
595,907	37,55
596,099	-42,32
596,292	19,11
596,484	133,8
596,676	60,07
596,869	-93,52
597,061	-34,13
597,253	86,7
597,446	115,37
597,638	8,87
597,83	-79,19
598,023	-68,95
598,215	-13,65
598,407	-5,46
598,6	43,69
598,792	53,93
598,984	117,42
599,176	-32,08
599,369	-23,89
599,561	-52,56
599,753	6,83
599,945	62,12
600,137	35,5
600,329	-68,95
600,522	-46,42
600,714	-30,04
600,906	-75,09
601,098	101,03
601,29	-21,85
601,482	-3,41
601,674	-120,15
601,866	0,68
602,058	62,12
602,25	-21,85
602,442	45,74
602,634	-52,56
602,826	125,61
603,018	66,22
603,21	-11,61
603,402	39,59
603,594	37,55
603,786	150,18
603,978	33,45
604,17	6,83
604,362	-46,42
604,554	66,22
604,745	0,68
604,937	-42,32
605,129	-13,65
605,321	43,69
605,513	23,21
605,704	8,87
605,896	72,36
606,088	31,4
606,28	49,83
606,471	35,5
606,663	105,13
606,855	105,13
607,047	70,31
607,238	-5,46
607,43	-99,67
607,622	-40,28
607,813	-54,61
608,005	10,92
608,197	-58,71
608,388	-54,61
608,58	-3,41
608,771	2,73
608,963	-32,08
609,154	60,07
609,346	29,35
609,537	21,16
609,729	96,94
609,921	51,88
610,112	55,98
610,303	92,84
610,495	23,21
610,686	37,55
610,878	70,31
611,069	-56,66
611,261	82,6
611,452	-52,56
611,643	10,92
611,835	25,26
612,026	-27,99
612,217	-27,99
612,409	58,03
612,6	39,59
612,791	6,83
612,983	70,31
613,174	35,5
613,365	94,89
613,557	-30,04
613,748	15,02
613,939	17,07
614,13	-40,28
614,321	10,92
614,513	0,68
614,704	2,73
614,895	-21,84
615,086	15,02
615,277	74,41
615,468	70,31
615,659	-5,46
615,851	58,03
616,042	6,83
616,233	121,51
616,424	-21,85
616,615	101,03
616,806	84,65
616,997	-91,48
617,188	88,75
617,379	37,55
617,57	0,68
617,761	-85,33
617,952	6,83
618,143	25,26
618,334	25,26
618,524	60,07
618,715	6,83
618,906	-1,37
619,097	35,5
619,288	33,45
619,479	51,88
619,67	-27,99
619,86	43,69
620,051	12,97
620,242	-1,37
620,433	-40,28
620,624	74,41
620,814	-111,96
621,005	-36,18
621,196	154,28
621,386	86,7
621,577	8,87
621,768	62,12
621,958	0,68
622,149	-1,37
622,34	96,94
622,53	76,46
622,721	49,83
622,912	-56,66
623,102	-48,47
623,293	-27,99
623,483	109,23
623,674	-56,66
623,864	21,16
624,055	62,12
624,245	-64,85
624,436	76,46
624,626	27,31
624,817	-1,37
625,007	-25,94
625,198	-3,41
625,388	43,69
625,579	41,64
625,769	31,4
625,959	-21,85
626,15	21,16
626,34	92,84
626,531	-3,41
626,721	-32,08
626,911	-48,47
627,101	-87,38
627,292	53,93
627,482	-27,99
627,672	-17,75
627,863	-19,8
628,053	41,64
628,243	-13,65
628,433	-17,75
628,623	-21,84
628,814	-42,32
629,004	-36,18
629,194	86,7
629,384	-44,37
629,574	8,87
629,764	0,68
629,955	49,83
630,145	-15,7
630,335	31,4
630,525	-34,13
630,715	31,4
630,905	-60,76
631,095	25,26
631,285	-120,15
631,475	86,7
631,665	0,68
631,855	2,73
632,045	117,42
632,235	84,65
632,425	-9,56
632,615	45,74
632,805	-81,24
632,994	92,84
633,184	45,74
633,374	-15,7
633,564	19,11
633,754	-60,76
633,944	19,11
634,133	12,97
634,323	86,7
634,513	74,41
634,703	66,22
634,893	39,59
635,082	78,51
635,272	2,73
635,462	33,45
635,651	-42,32
635,841	78,51
636,031	58,03
636,221	80,55
636,41	80,55
636,6	-19,8
636,789	64,17
636,979	78,51
637,169	10,92
637,358	-44,37
637,548	-7,51
637,737	-3,41
637,927	47,79
638,116	-154,96
638,306	68,27
638,495	2,73
638,685	66,22
638,874	64,17
639,064	25,26
639,253	0,68
639,443	84,65
639,632	117,42
639,822	82,6
640,011	66,22
640,2	-21,85
640,39	35,5
640,579	-17,75
640,768	72,36
640,958	29,35
641,147	35,5
641,336	125,61
641,526	-54,61
641,715	88,75
641,904	-50,52
642,093	-21,85
642,283	-15,7
642,472	-9,56
642,661	62,12
642,85	0,68
643,039	-7,51
643,228	12,97
643,418	-19,8
643,607	0,68
643,796	21,16
643,985	41,64
644,174	29,35
644,363	-19,8
644,552	-23,89
644,741	19,11
644,93	-3,41
645,119	-30,04
645,308	10,92
645,497	10,92
645,686	10,92
645,875	-17,75
646,064	72,36
646,253	10,92
646,442	-17,75
646,631	96,94
646,82	-7,51
647,009	39,59
647,198	-30,04
647,387	41,64
647,575	39,59
647,764	49,83
647,953	-71
648,142	-3,41
648,331	47,79
648,519	21,16
648,708	-1,37
648,897	78,51
649,086	86,7
649,274	25,26
649,463	-46,42
649,652	60,07
649,84	21,16
650,029	111,27
650,218	92,84
650,406	94,89
650,595	-7,51
650,784	-11,61
650,972	-64,85
651,161	-9,56
651,349	-9,56
651,538	74,41
651,726	66,22
651,915	2,73
652,104	-27,99
652,292	94,89
652,481	-23,89
652,669	-58,71
652,857	68,27
653,046	-46,42
653,234	29,35
653,423	37,55
653,611	53,93
653,8	33,45
653,988	76,46
654,176	-50,52
654,365	-66,9
654,553	150,18
654,741	-62,8
654,93	51,88
655,118	-42,32
655,306	39,59
655,494	131,75
655,683	-30,04
655,871	82,6
656,059	23,21
656,247	109,23
656,436	15,02
656,624	82,6
656,812	70,31
657	-54,61
657,188	94,89
657,376	125,61
657,564	33,45
657,753	35,5
657,941	15,02
658,129	21,16
658,317	-21,84
658,505	15,02
658,693	-66,9
658,881	6,83
659,069	47,79
659,257	60,07
659,445	-48,47
659,633	-17,75
659,821	33,45
660,009	45,74
660,197	-38,23
660,384	-17,75
660,572	33,45
660,76	0,68
660,948	25,26
661,136	90,79
661,324	64,17
661,512	4,78
661,699	39,59
661,887	17,07
662,075	29,35
662,263	76,46
662,451	68,27
662,638	98,99
662,826	6,83
663,014	-68,95
663,201	27,31
663,389	80,55
663,577	60,07
663,764	12,97
663,952	72,36
664,14	64,17
664,327	51,88
664,515	41,64
664,702	127,66
664,89	-62,8
665,078	2,73
665,265	41,64
665,453	15,02
665,64	68,27
665,828	86,7
666,015	-36,18
666,203	-34,13
666,39	125,61
666,578	-21,85
666,765	33,45
666,952	-25,94
667,14	39,59
667,327	-30,04
667,515	135,85
667,702	-58,71
667,889	4,78
668,077	-30,04
668,264	-23,89
668,451	47,79
668,638	-48,47
668,826	76,46
669,013	70,31
669,2	-38,23
669,388	23,21
669,575	70,31
669,762	-46,42
669,949	51,88
670,136	119,46
670,323	78,51
670,511	43,69
670,698	31,4
670,885	17,07
671,072	64,17
671,259	17,07
671,446	25,26
671,633	-87,38
671,82	-3,41
672,007	-3,41
672,194	84,65
672,381	33,45
672,568	-48,47
672,755	-34,13
672,942	31,4
673,129	-11,61
673,316	33,45
673,503	103,08
673,69	0,68
673,877	10,92
674,064	6,83
674,251	64,17
674,437	-62,8
674,624	-23,89
674,811	25,26
674,998	74,41
675,185	-1,37
675,372	-9,56
675,558	80,55
675,745	8,87
675,932	47,79
676,119	12,97
676,305	-9,56
676,492	-17,75
676,679	10,92
676,865	129,7
677,052	-50,52
677,239	-15,7
677,425	74,41
677,612	2,73
677,798	84,65
677,985	19,11
678,172	-52,56
678,358	-9,56
678,545	17,07
678,731	15,02
678,918	37,55
679,104	55,98
679,291	68,27
679,477	21,16
679,664	-99,67
679,85	-58,71
680,036	141,99
680,223	39,59
680,409	154,28
680,596	2,73
680,782	35,5
680,968	76,46
681,155	72,36
681,341	53,93
681,527	6,83
681,714	47,79
681,9	33,45
682,086	43,69
682,272	-89,43
682,459	43,69
682,645	53,93
682,831	-34,13
683,017	88,75
683,204	88,75
683,39	-44,37
683,576	21,16
683,762	55,98
683,948	205,48
684,134	-68,95
684,32	-36,18
684,506	-25,94
684,693	-9,56
684,879	-32,08
685,065	43,69
685,251	27,31
685,437	-3,41
685,623	66,22
685,809	45,74
685,995	-32,08
686,181	-7,51
686,366	41,64
686,552	23,21
686,738	2,73
686,924	64,17
687,11	78,51
687,296	-30,04
687,482	8,87
687,668	-5,46
687,853	96,94
688,039	0,68
688,225	-40,28
688,411	17,07
688,597	-34,13
688,782	27,31
688,968	66,22
689,154	-3,41
689,34	19,11
689,525	17,07
689,711	-87,38
689,897	-17,75
690,082	-17,75
690,268	-19,8
690,454	-9,56
690,639	31,4
690,825	12,97
691,01	27,31
691,196	4,78
691,381	-68,95
691,567	74,41
691,753	37,55
691,938	-19,8
692,124	139,94
692,309	19,11
692,494	-32,08
692,68	31,4
692,865	-52,56
693,051	21,16
693,236	4,78
693,422	15,02
693,607	-1,37
693,792	29,35
693,978	129,7
694,163	98,99
694,348	62,12
694,534	2,73
694,719	-11,61
694,904	-50,52
695,089	21,16
695,275	146,09
695,46	58,03
695,645	-9,56
695,83	33,45
696,016	23,21
696,201	96,94
696,386	23,21
696,571	60,07
696,756	98,99
696,941	41,64
697,126	17,07
697,311	37,55
697,497	17,07
697,682	74,41
697,867	70,31
698,052	4,78
698,237	80,55
698,422	-21,84
698,607	-7,51
698,792	31,4
698,977	25,26
699,162	29,35
699,347	74,41
699,531	33,45
699,716	-3,41
699,901	101,03
700,086	80,55
700,271	-13,65
700,456	12,97
700,641	-17,75
700,825	0,68
701,01	15,02
701,195	45,74
701,38	51,88
701,565	-13,65
701,749	17,07
701,934	4,78
702,119	92,84
702,303	66,22
702,488	76,46
702,673	-68,95
702,857	21,16
703,042	64,17
703,227	-34,13
703,411	39,59
703,596	84,65
703,78	-1,37
703,965	4,78
704,15	23,21
704,334	17,07
704,519	53,93
704,703	66,22
704,888	117,42
705,072	21,16
705,257	53,93
705,441	-13,65
705,625	12,97
705,81	70,31
705,994	-27,99
706,179	23,21
706,363	29,35
706,547	29,35
706,732	53,93
706,916	-27,99
707,1	90,79
707,285	12,97
707,469	-21,85
707,653	-54,61
707,837	84,65
708,022	58,03
708,206	90,79
708,39	-60,76
708,574	27,31
708,759	51,88
708,943	29,35
709,127	-48,47
709,311	43,69
709,495	12,97
709,679	37,55
709,863	21,16
710,047	115,37
710,231	64,17
710,415	39,59
710,6	-46,42
710,784	17,07
710,968	-5,46
711,152	-75,09
711,336	92,84
711,519	-44,37
711,703	21,16
711,887	-25,94
712,071	-97,62
712,255	37,55
712,439	10,92
712,623	90,79
712,807	-46,42
712,991	27,31
713,174	-9,56
713,358	49,83
713,542	8,87
713,726	41,64
713,91	53,93
714,093	-62,8
714,277	45,74
714,461	47,79
714,645	-21,85
714,828	12,97
715,012	137,9
715,196	29,35
715,379	2,73
715,563	-11,61
715,747	-19,8
715,93	27,31
716,114	-25,94
716,297	0,68
716,481	-56,66
716,664	39,59
716,848	-11,61
717,031	-5,46
717,215	-13,65
717,398	107,18
717,582	39,59
717,765	117,42
717,949	-36,18
718,132	0,68
718,316	15,02
718,499	23,21
718,682	-27,99
718,866	39,59
719,049	27,31
719,233	74,41
719,416	-77,14
719,599	12,97
719,782	29,35
719,966	17,07
720,149	60,07
720,332	51,88
720,515	10,92
720,699	39,59
720,882	88,75
721,065	4,78
721,248	156,33
721,431	66,22
721,615	41,64
721,798	12,97
721,981	-60,76
722,164	8,87
722,347	-60,76
722,53	33,45
722,713	-7,51
722,896	-40,28
723,079	78,51
723,262	80,55
723,445	-3,41
723,628	-38,23
723,811	150,18
723,994	-1,37
724,177	-15,7
724,36	-27,99
724,543	49,83
724,726	-44,37
724,909	64,17
725,091	76,46
725,274	70,31
725,457	27,31
725,64	53,93
725,823	-21,85
726,006	-21,85
726,188	0,68
726,371	94,89
726,554	-25,94
726,737	4,78
726,919	-54,61
727,102	62,12
727,285	-23,89
727,467	8,87
727,65	62,12
727,833	-11,61
728,015	17,07
728,198	31,4
728,38	23,21
728,563	35,5
728,746	17,07
728,928	117,42
729,111	-3,41
729,293	58,03
729,476	70,31
729,658	-42,32
729,841	31,4
730,023	-44,37
730,205	-21,85
730,388	-3,41
730,57	33,45
730,753	70,31
730,935	111,27
731,117	76,46
731,3	53,93
731,482	-5,46
731,664	-5,46
731,847	-3,41
732,029	-77,14
732,211	-36,18
732,394	29,35
732,576	-9,56
732,758	8,87
732,94	-13,65
733,122	37,55
733,305	98,99
733,487	47,79
733,669	-15,7
733,851	12,97
734,033	51,88
734,215	2,73
734,397	121,51
734,58	15,02
734,762	-91,48
734,944	25,26
735,126	66,22
735,308	0,68
735,49	129,7
735,672	45,74
735,854	21,16
736,036	-30,04
736,218	35,5
736,399	27,31
736,581	6,83
736,763	29,35
736,945	58,03
737,127	88,75
737,309	45,74
737,491	15,02
737,672	-44,37
737,854	41,64
738,036	117,42
738,218	-17,75
738,4	90,79
738,581	72,36
738,763	12,97
738,945	19,11
739,127	78,51
739,308	45,74
739,49	27,31
739,672	-62,8
739,853	60,07
740,035	31,4
740,216	41,64
740,398	66,22
740,58	-27,99
740,761	-54,61
740,943	-1,37
741,124	41,64
741,306	74,41
741,487	135,85
741,669	-40,28
741,85	47,79
742,032	17,07
742,213	66,22
742,394	43,69
742,576	-15,7
742,757	23,21
742,939	-38,23
743,12	4,78
743,301	119,46
743,483	53,93
743,664	-54,61
743,845	49,83
744,027	80,55
744,208	-73,04
744,389	-36,18
744,57	64,17
744,752	62,12
744,933	21,16
745,114	12,97
745,295	37,55
745,476	-3,41
745,657	154,28
745,839	-3,41
746,02	88,75
746,201	51,88
746,382	-58,71
746,563	-95,57
746,744	127,66
746,925	49,83
747,106	-42,32
747,287	-1,37
747,468	47,79
747,649	197,29
747,83	70,31
748,011	43,69
748,192	8,87
748,373	94,89
748,554	4,78
748,735	66,22
748,915	-7,51
749,096	121,51
749,277	94,89
749,458	2,73
749,639	27,31
749,82	4,78
750	23,21
750,181	23,21
750,362	105,13
750,543	2,73
750,723	62,12
750,904	-15,7
751,085	-11,61
751,265	-52,56
751,446	31,4
751,627	-5,46
751,807	-95,57
751,988	-9,56
752,169	2,73
752,349	4,78
752,53	8,87
752,71	-38,23
752,891	60,07
753,071	168,62
753,252	88,75
753,432	17,07
753,613	-50,52
753,793	19,11
753,974	60,07
754,154	12,97
754,334	15,02
754,515	-30,04
754,695	4,78
754,876	33,45
755,056	78,51
755,236	-40,28
755,417	-9,56
755,597	-38,23
755,777	39,59
755,957	29,35
756,138	74,41
756,318	96,94
756,498	33,45
756,678	-36,18
756,859	41,64
757,039	-5,46
757,219	47,79
757,399	41,64
757,579	21,16
757,759	80,55
757,939	-36,18
758,119	53,93
758,3	4,78
758,48	19,11
758,66	23,21
758,84	37,55
759,02	101,03
759,2	4,78
759,38	62,12
759,56	-66,9
759,74	-5,46
759,919	41,64
760,099	12,97
760,279	-62,8
760,459	51,88
760,639	-1,37
760,819	55,98
760,999	45,74
761,178	-27,99
761,358	51,88
761,538	55,98
761,718	35,5
761,898	35,5
762,077	-1,37
762,257	41,64
762,437	-50,52
762,616	35,5
762,796	-23,89
762,976	-32,08
763,155	8,87
763,335	19,11
763,515	-9,56
763,694	2,73
763,874	6,83
764,053	-11,61
764,233	2,73
764,413	90,79
764,592	74,41
764,772	-46,42
764,951	12,97
765,131	-30,04
765,31	29,35
765,489	72,36
765,669	49,83
765,848	39,59
766,028	-11,61
766,207	49,83
766,386	115,37
766,566	15,02
766,745	72,36
766,924	-46,42
767,104	94,89
767,283	39,59
767,462	115,37
767,642	-73,04
767,821	25,26
768	-60,76
768,179	-11,61
768,358	-46,42
768,538	21,16
768,717	23,21
768,896	17,07
769,075	19,11
769,254	-32,08
769,433	6,83
769,612	6,83
769,791	-11,61
769,97	58,03
770,149	133,8
770,328	-48,47
770,507	-19,8
770,686	-9,56
770,865	-27,99
771,044	-13,65
771,223	-15,7
771,402	82,6
771,581	27,31
771,76	-5,46
771,939	-19,8
772,118	-5,46
772,297	-11,61
772,475	45,74
772,654	-1,37
772,833	123,56
773,012	43,69
773,191	72,36
773,369	37,55
773,548	21,16
773,727	-9,56
773,906	-46,42
774,084	4,78
774,263	68,27
774,442	6,83
774,62	127,66
774,799	-7,51
774,977	17,07
775,156	37,55
775,335	39,59
775,513	-7,51
775,692	-36,18
775,87	-50,52
776,049	80,55
776,227	12,97
776,406	-21,85
776,584	-44,37
776,763	37,55
776,941	-21,85
777,119	70,31
777,298	-7,51
777,476	17,07
777,655	6,83
777,833	-11,61
778,011	-3,41
778,19	17,07
778,368	98,99
778,546	-23,89
778,725	-3,41
778,903	41,64
779,081	-9,56
779,259	-17,75
779,437	-77,14
779,616	17,07
779,794	10,92
779,972	12,97
780,15	23,21
780,328	119,46
780,506	-1,37
780,685	-54,61
780,863	25,26
781,041	43,69
781,219	-21,85
781,397	15,02
781,575	-21,85
781,753	43,69
781,931	10,92
782,109	4,78
782,287	-50,52
782,465	-25,94
782,643	-13,65
782,82	37,55
782,998	37,55
783,176	-68,95
783,354	78,51
783,532	15,02
783,71	-44,37
783,888	45,74
784,065	131,75
784,243	29,35
784,421	96,94
784,599	47,79
784,776	-38,23
784,954	4,78
785,132	15,02
785,31	-52,56
785,487	86,7
785,665	55,98
785,842	23,21
786,02	-64,85
786,198	21,16
786,375	58,03
786,553	-15,7
786,73	-7,51
786,908	10,92
787,085	0,68
787,263	62,12
787,44	127,66
787,618	84,65
787,795	72,36
787,973	-3,41
788,15	-58,71
788,328	-21,85
788,505	74,41
788,682	74,41
788,86	72,36
789,037	23,21
789,215	-15,7
789,392	4,78
789,569	-19,8
789,746	-13,65
789,924	41,64
790,101	-77,14
790,278	25,26
790,455	-48,47
790,633	72,36
790,81	60,07
790,987	37,55
791,164	15,02
791,341	45,74
791,518	25,26
791,695	111,27
791,873	45,74
792,05	41,64
792,227	27,31
792,404	-34,13
792,581	70,31
792,758	29,35
792,935	10,92
793,112	-9,56
793,289	21,16
793,466	53,93
793,643	98,99
793,82	27,31
793,996	-25,94
794,173	125,61
794,35	78,51
794,527	23,21
794,704	4,78
794,881	-27,99
795,057	53,93
795,234	31,4
795,411	37,55
795,588	121,51
795,765	-36,18
795,941	60,07
796,118	-81,24
796,295	49,83
796,471	-13,65
796,648	66,22
796,825	-101,72
797,001	2,73
797,178	129,7
797,354	53,93
797,531	111,27
797,708	-30,04
797,884	72,36
798,061	-27,99
798,237	78,51
798,414	15,02
798,59	68,27
798,767	-15,7
798,943	60,07
799,119	-71
799,296	-77,14
799,472	-34,13
799,649	-81,24
799,825	53,93
800,001	37,55
800,178	-93,52
800,354	53,93
800,53	53,93
800,707	70,31
800,883	55,98
801,059	-11,61
801,235	103,08
801,411	49,83
801,588	19,11
801,764	47,79
801,94	-11,61
802,116	33,45
802,292	37,55
802,468	-44,37
802,645	82,6
802,821	-5,46
802,997	70,31
803,173	17,07
803,349	84,65
803,525	62,12
803,701	156,33
803,877	12,97
804,053	-15,7
804,229	80,55
804,405	19,11
804,581	94,89
804,756	-62,8
804,932	58,03
805,108	-64,85
805,284	133,8
805,46	68,27
805,636	-44,37
805,812	105,13
805,987	-34,13
806,163	-21,84
806,339	27,31
806,515	-13,65
806,69	-48,47
806,866	15,02
807,042	21,16
807,217	23,21
807,393	37,55
807,569	4,78
807,744	78,51
807,92	-83,28
808,096	60,07
808,271	45,74
808,447	80,55
808,622	-56,66
808,798	21,16
808,973	121,51
809,149	74,41
809,324	94,89
809,5	53,93
809,675	37,55
809,851	117,42
810,026	117,42
810,201	37,55
810,377	12,97
810,552	62,12
810,728	10,92
810,903	-46,42
811,078	-30,04
811,253	-7,51
811,429	62,12
811,604	0,68
811,779	45,74
811,955	8,87
812,13	39,59
812,305	80,55
812,48	2,73
812,655	78,51
812,83	45,74
813,006	31,4
813,181	121,51
813,356	74,41
813,531	-21,84
813,706	-27,99
813,881	25,26
814,056	92,84
814,231	-13,65
814,406	-30,04
814,581	-62,8
814,756	144,04
814,931	47,79
815,106	31,4
815,281	94,89
815,456	160,42
815,631	62,12
815,805	-13,65
815,98	-105,81
816,155	-30,04
816,33	-11,61
816,505	115,37
816,68	29,35
816,854	-11,61
817,029	37,55
817,204	23,21
817,379	66,22
817,553	-46,42
817,728	21,16
817,903	37,55
818,077	-25,94
818,252	80,55
818,427	-11,61
818,601	66,22
818,776	131,75
818,95	-1,37
819,125	4,78
819,299	109,23
819,474	58,03
819,648	94,89
819,823	-30,04
819,997	-40,28
820,172	58,03
820,346	-52,56
820,521	74,41
820,695	37,55
820,87	41,64
821,044	41,64
821,218	12,97
821,393	-13,65
821,567	-15,7
821,741	-36,18
821,916	53,93
822,09	45,74
822,264	-7,51
822,438	88,75
822,613	80,55
822,787	82,6
822,961	-40,28
823,135	123,56
823,309	47,79
823,483	23,21
823,658	-40,28
823,832	117,42
824,006	33,45
824,18	82,6
824,354	6,83
824,528	49,83
824,702	23,21
824,876	111,27
825,05	-109,91
825,224	94,89
825,398	101,03
825,572	-91,48
825,746	-38,23
825,92	47,79
826,093	37,55
826,267	31,4
826,441	-15,7
826,615	12,97
826,789	58,03
826,963	-25,94
827,136	60,07
827,31	27,31
827,484	-36,18
827,658	31,4
827,831	39,59
828,005	-19,8
828,179	47,79
828,353	-66,9
828,526	-7,51
828,7	58,03
828,873	47,79
829,047	-58,71
829,221	-48,47
829,394	10,92
829,568	80,55
829,741	4,78
829,915	-48,47
830,088	-34,13
830,262	72,36
830,435	0,68
830,609	-46,42
830,782	68,27
830,956	-3,41
831,129	-40,28
831,302	47,79
831,476	-15,7
831,649	25,26
831,822	-25,94
831,996	-25,94
832,169	49,83
832,342	0,68
832,516	27,31
832,689	4,78
832,862	64,17
833,035	121,51
833,209	8,87
833,382	-64,85
833,555	60,07
833,728	-15,7
833,901	-25,94
834,074	4,78
834,247	-87,38
834,42	68,27
834,594	29,35
834,767	111,27
834,94	33,45
835,113	29,35
835,286	-50,52
835,459	0,68
835,632	86,7
835,805	33,45
835,977	31,4
836,15	94,89
836,323	6,83
836,496	55,98
836,669	-68,95
836,842	19,11
837,015	-38,23
837,188	41,64
837,36	-13,65
837,533	35,5
837,706	90,79
837,879	17,07
838,051	0,68
838,224	-48,47
838,397	21,16
838,569	-3,41
838,742	-34,13
838,915	70,31
839,087	74,41
839,26	94,89
839,433	19,11
839,605	-42,32
839,778	64,17
839,95	86,7
840,123	15,02
840,295	-11,61
840,468	41,64
840,64	31,4
840,813	55,98
840,985	-71
841,158	-40,28
841,33	37,55
841,502	62,12
841,675	70,31
841,847	8,87
842,019	72,36
842,192	-36,18
842,364	31,4
842,536	-9,56
842,709	33,45
842,881	23,21
843,053	49,83
843,225	12,97
843,398	-13,65
843,57	125,61
843,742	84,65
843,914	82,6
844,086	58,03
844,258	-68,95
844,43	8,87
844,602	-56,66
844,775	2,73
844,947	109,23
845,119	-21,85
845,291	23,21
845,463	17,07
845,635	92,84
845,807	-60,76
845,979	47,79
846,15	35,5
846,322	80,55
846,494	27,31
846,666	25,26
846,838	51,88
847,01	-23,89
847,182	-13,65
847,354	68,27
847,525	70,31
847,697	72,36
847,869	27,31
848,041	-36,18
848,212	-1,37
848,384	25,26
848,556	-19,8
848,727	-5,46
848,899	25,26
849,071	80,55
849,242	39,59
849,414	-7,51
849,585	47,79
849,757	78,51
849,929	-19,8
850,1	37,55
850,272	33,45
850,443	-34,13
850,615	113,32
850,786	60,07
850,958	105,13
851,129	58,03
851,3	45,74
851,472	55,98
851,643	-3,41
851,815	-36,18
851,986	78,51
852,157	101,03
852,329	55,98
852,5	49,83
852,671	-91,48
852,842	105,13
853,014	-5,46
853,185	47,79
853,356	35,5
853,527	6,83
853,698	-44,37
853,87	-30,04
854,041	-62,8
854,212	80,55
854,383	37,55
854,554	0,68
854,725	53,93
854,896	51,88
855,067	78,51
855,238	-3,41
855,409	47,79
855,58	72,36
855,751	2,73
855,922	8,87
856,093	-5,46
856,264	12,97
856,435	84,65
856,606	66,22
856,777	76,46
856,948	98,99
857,118	-34,13
857,289	-13,65
857,46	98,99
857,631	49,83
857,802	70,31
857,972	84,65
858,143	-38,23
858,314	-5,46
858,484	-54,61
858,655	29,35
858,826	-21,85
858,996	-79,19
859,167	62,12
859,338	74,41
859,508	94,89
859,679	53,93
859,849	60,07
860,02	80,55
860,19	98,99
860,361	-7,51
860,531	-42,32
860,702	31,4
860,872	-75,09
861,043	27,31
861,213	8,87
861,384	-40,28
861,554	74,41
861,724	25,26
861,895	62,12
862,065	-19,8
862,235	-17,75
862,406	-66,9
862,576	21,16
862,746	80,55
862,916	119,46
863,087	82,6
863,257	8,87
863,427	51,88
863,597	-30,04
863,767	86,7
863,937	43,69
864,108	53,93
864,278	62,12
864,448	144,04
864,618	78,51
864,788	62,12
864,958	-54,61
865,128	33,45
865,298	25,26
865,468	8,87
865,638	-64,85
865,808	-7,51
865,978	-15,7
866,148	117,42
866,318	19,11
866,487	12,97
866,657	45,74
866,827	21,16
866,997	0,68
867,167	6,83
867,337	41,64
867,506	39,59
867,676	-46,42
867,846	31,4
868,016	41,64
868,185	31,4
868,355	21,16
868,525	41,64
868,694	-44,37
868,864	-85,33
869,034	-36,18
869,203	51,88
869,373	-42,32
869,542	-9,56
869,712	58,03
869,881	-13,65
870,051	51,88
870,22	8,87
870,39	33,45
870,559	-17,75
870,729	131,75
870,898	-34,13
871,068	86,7
871,237	-50,52
871,406	21,16
871,576	78,51
871,745	49,83
871,914	-44,37
872,084	-27,99
872,253	-15,7
872,422	4,78
872,591	31,4
872,761	39,59
872,93	-19,8
873,099	39,59
873,268	27,31
873,437	-19,8
873,607	-5,46
873,776	166,57
873,945	-87,38
874,114	33,45
874,283	-38,23
874,452	15,02
874,621	86,7
874,79	6,83
874,959	2,73
875,128	-13,65
875,297	148,14
875,466	0,68
875,635	-40,28
875,804	2,73
875,973	8,87
876,142	4,78
876,31	-27,99
876,479	62,12
876,648	70,31
876,817	4,78
876,986	-46,42
877,155	4,78
877,323	53,93
877,492	-36,18
877,661	-23,89
877,829	-19,8
877,998	-3,41
878,167	-5,46
878,335	62,12
878,504	49,83
878,673	6,83
878,841	-15,7
879,01	86,7
879,178	17,07
879,347	-58,71
879,515	2,73
879,684	12,97
879,852	-13,65
880,021	19,11
880,189	98,99
880,358	29,35
880,526	90,79
880,695	-38,23
880,863	-15,7
881,031	-32,08
881,2	4,78
881,368	15,02
881,536	78,51
881,705	-66,9
881,873	84,65
882,041	53,93
882,21	-40,28
882,378	-27,99
882,546	70,31
882,714	-36,18
882,882	39,59
883,05	0,68
883,219	12,97
883,387	60,07
883,555	39,59
883,723	49,83
883,891	10,92
884,059	49,83
884,227	49,83
884,395	49,83
884,563	-30,04
884,731	-25,94
884,899	12,97
885,067	17,07
885,235	47,79
885,403	-3,41
885,571	4,78
885,739	25,26
