Data from USB4F035431__13__14-21-58-271.txt Node

Date: Wed Feb 12 14:21:58 CET 2025
User: Versuch 234
Spectrometer: USB4F03543
Trigger mode: 4
Integration Time (sec): 1,000000E-1
Scans to average: 1
Electric dark correction enabled: true
Nonlinearity correction enabled: false
Boxcar width: 0
XAxis mode: Wavelengths
Number of Pixels in Spectrum: 3648
>>>>>Begin Spectral Data<<<<<
179,969	-146,26
180,181	-146,26
180,394	-146,26
180,606	-80,72
180,819	-127,83
181,031	38,06
181,243	64,68
181,456	-56,15
181,668	58,54
181,88	23,72
182,093	-15,19
182,305	-54,1
182,518	-23,38
182,73	23,72
182,942	44,2
183,155	-39,76
183,367	-64,34
183,579	46,25
183,791	148,65
184,004	124,07
184,216	138,41
184,428	87,21
184,641	87,21
184,853	17,58
185,065	144,55
185,277	33,96
185,49	152,74
185,702	68,78
185,914	1,19
186,126	42,15
186,338	29,87
186,551	83,11
186,763	83,11
186,975	21,67
187,187	119,98
187,399	33,96
187,612	74,92
187,824	93,35
188,036	52,39
188,248	79,02
188,46	107,69
188,672	97,45
188,885	99,5
189,097	152,74
189,309	31,91
189,521	21,67
189,733	50,35
189,945	85,16
190,157	89,26
190,369	66,73
190,581	115,88
190,794	150,7
191,006	122,02
191,218	177,32
191,43	146,6
191,642	54,44
191,854	56,49
192,066	165,03
192,278	124,07
192,49	19,63
192,702	97,45
192,914	115,88
193,126	72,87
193,338	115,88
193,55	115,88
193,762	83,11
193,974	36,01
194,186	89,26
194,398	111,78
194,61	56,49
194,822	158,89
195,034	111,78
195,246	179,37
195,457	136,36
195,669	175,27
195,881	132,26
196,093	3,24
196,305	136,36
196,517	46,25
196,729	132,26
196,941	95,4
197,153	91,31
197,365	144,55
197,576	111,78
197,788	38,06
198	138,41
198,212	177,32
198,424	162,98
198,636	66,73
198,847	17,58
199,059	132,26
199,271	70,83
199,483	140,46
199,695	85,16
199,906	130,22
200,118	148,65
200,33	169,13
200,542	429,22
200,753	130,22
200,965	115,88
201,177	126,12
201,389	197,8
201,6	70,83
201,812	85,16
202,024	79,02
202,235	50,35
202,447	115,88
202,659	177,32
202,871	128,17
203,082	72,87
203,294	62,63
203,506	101,55
203,717	179,37
203,929	136,36
204,141	54,44
204,352	212,14
204,564	79,02
204,775	89,26
204,987	146,6
205,199	130,22
205,41	15,53
205,622	81,07
205,833	58,54
206,045	124,07
206,257	83,11
206,468	13,48
206,68	101,55
206,891	115,88
207,103	83,11
207,314	19,63
207,526	150,7
207,737	74,92
207,949	113,83
208,16	156,84
208,372	119,98
208,583	85,16
208,795	165,03
209,006	130,22
209,218	130,22
209,429	29,87
209,641	72,87
209,852	85,16
210,064	122,02
210,275	64,68
210,487	62,63
210,698	195,75
210,909	160,94
211,121	136,36
211,332	83,11
211,544	119,98
211,755	195,75
211,966	138,41
212,178	83,11
212,389	255,14
212,6	83,11
212,812	165,03
213,023	154,79
213,234	128,17
213,446	72,87
213,657	50,35
213,868	165,03
214,08	193,7
214,291	150,7
214,502	87,21
214,714	5,29
214,925	142,5
215,136	74,92
215,347	93,35
215,559	83,11
215,77	40,11
215,981	242,85
216,192	79,02
216,404	142,5
216,615	23,72
216,826	119,98
217,037	81,07
217,249	136,36
217,46	230,57
217,671	130,22
217,882	140,46
218,093	85,16
218,304	167,08
218,516	148,65
218,727	42,15
218,938	58,54
219,149	222,38
219,36	169,13
219,571	138,41
219,782	109,74
219,993	115,88
220,205	91,31
220,416	156,84
220,627	111,78
220,838	158,89
221,049	267,43
221,26	146,6
221,471	136,36
221,682	154,79
221,893	132,26
222,104	25,77
222,315	62,63
222,526	33,96
222,737	138,41
222,948	72,87
223,159	91,31
223,37	205,99
223,581	136,36
223,792	74,92
224,003	103,59
224,214	15,53
224,425	99,5
224,636	115,88
224,847	124,07
225,058	140,46
225,269	167,08
225,48	52,39
225,691	64,68
225,902	138,41
226,112	167,08
226,323	33,96
226,534	50,35
226,745	113,83
226,956	42,15
227,167	76,97
227,378	97,45
227,589	105,64
227,799	193,7
228,01	62,63
228,221	9,39
228,432	107,69
228,643	58,54
228,853	58,54
229,064	58,54
229,275	105,64
229,486	101,55
229,697	95,4
229,907	91,31
230,118	152,74
230,329	138,41
230,54	142,5
230,75	124,07
230,961	156,84
231,172	44,2
231,383	70,83
231,593	19,63
231,804	81,07
232,015	156,84
232,225	115,88
232,436	58,54
232,647	138,41
232,857	89,26
233,068	72,87
233,279	187,56
233,489	203,94
233,7	132,26
233,91	89,26
234,121	91,31
234,332	136,36
234,542	91,31
234,753	91,31
234,964	173,22
235,174	95,4
235,385	181,42
235,595	11,43
235,806	181,42
236,016	62,63
236,227	122,02
236,437	175,27
236,648	70,83
236,858	79,02
237,069	119,98
237,279	93,35
237,49	119,98
237,7	99,5
237,911	62,63
238,121	162,98
238,332	42,15
238,542	122,02
238,753	66,73
238,963	91,31
239,174	134,31
239,384	50,35
239,595	122,02
239,805	62,63
240,015	83,11
240,226	72,87
240,436	140,46
240,647	95,4
240,857	91,31
241,067	154,79
241,278	271,53
241,488	31,91
241,698	89,26
241,909	89,26
242,119	66,73
242,329	138,41
242,54	113,83
242,75	132,26
242,96	93,35
243,171	109,74
243,381	144,55
243,591	134,31
243,801	173,22
244,012	201,9
244,222	156,84
244,432	50,35
244,642	105,64
244,853	107,69
245,063	105,64
245,273	95,4
245,483	101,55
245,694	111,78
245,904	126,12
246,114	165,03
246,324	70,83
246,534	150,7
246,744	115,88
246,955	-50
247,165	175,27
247,375	208,04
247,585	138,41
247,795	128,17
248,005	95,4
248,215	165,03
248,425	169,13
248,636	160,94
248,846	128,17
249,056	50,35
249,266	72,87
249,476	5,29
249,686	167,08
249,896	126,12
250,106	70,83
250,316	40,11
250,526	208,04
250,736	99,5
250,946	150,7
251,156	156,84
251,366	138,41
251,576	124,07
251,786	177,32
251,996	119,98
252,206	119,98
252,416	91,31
252,626	64,68
252,836	-15,19
253,046	148,65
253,256	165,03
253,466	156,84
253,676	107,69
253,885	91,31
254,095	101,55
254,305	99,5
254,515	107,69
254,725	83,11
254,935	42,15
255,145	136,36
255,355	160,94
255,564	60,59
255,774	83,11
255,984	165,03
256,194	68,78
256,404	54,44
256,614	171,18
256,823	197,8
257,033	187,56
257,243	136,36
257,453	173,22
257,662	74,92
257,872	193,7
258,082	76,97
258,292	74,92
258,501	169,13
258,711	240,81
258,921	177,32
259,131	87,21
259,34	85,16
259,55	119,98
259,76	48,3
259,969	99,5
260,179	50,35
260,389	91,31
260,598	140,46
260,808	148,65
261,018	50,35
261,227	130,22
261,437	64,68
261,647	140,46
261,856	72,87
262,066	117,93
262,275	205,99
262,485	187,56
262,694	150,7
262,904	64,68
263,114	105,64
263,323	91,31
263,533	117,93
263,742	66,73
263,952	132,26
264,161	109,74
264,371	56,49
264,58	46,25
264,79	91,31
264,999	130,22
265,209	142,5
265,418	189,61
265,628	173,22
265,837	152,74
266,047	136,36
266,256	251,05
266,466	64,68
266,675	1,19
266,884	124,07
267,094	124,07
267,303	212,14
267,513	150,7
267,722	175,27
267,931	160,94
268,141	81,07
268,35	156,84
268,559	191,66
268,769	48,3
268,978	66,73
269,187	105,64
269,397	81,07
269,606	152,74
269,815	99,5
270,025	81,07
270,234	122,02
270,443	138,41
270,653	76,97
270,862	105,64
271,071	50,35
271,28	128,17
271,49	62,63
271,699	79,02
271,908	126,12
272,117	-2,9
272,327	66,73
272,536	99,5
272,745	25,77
272,954	74,92
273,163	97,45
273,372	142,5
273,582	50,35
273,791	150,7
274	140,46
274,209	150,7
274,418	171,18
274,627	201,9
274,836	85,16
275,046	173,22
275,255	169,13
275,464	54,44
275,673	72,87
275,882	105,64
276,091	93,35
276,3	64,68
276,509	132,26
276,718	107,69
276,927	87,21
277,136	97,45
277,345	89,26
277,554	136,36
277,763	83,11
277,972	140,46
278,181	87,21
278,39	68,78
278,599	115,88
278,808	48,3
279,017	201,9
279,226	97,45
279,435	128,17
279,644	128,17
279,853	158,89
280,062	199,85
280,271	146,6
280,48	132,26
280,688	56,49
280,897	150,7
281,106	97,45
281,315	142,5
281,524	154,79
281,733	142,5
281,942	113,83
282,151	140,46
282,359	109,74
282,568	56,49
282,777	76,97
282,986	91,31
283,195	193,7
283,403	99,5
283,612	117,93
283,821	136,36
284,03	132,26
284,238	122,02
284,447	122,02
284,656	72,87
284,865	101,55
285,073	89,26
285,282	117,93
285,491	97,45
285,699	89,26
285,908	158,89
286,117	97,45
286,325	154,79
286,534	171,18
286,743	74,92
286,951	66,73
287,16	197,8
287,369	89,26
287,577	124,07
287,786	115,88
287,995	107,69
288,203	79,02
288,412	203,94
288,62	124,07
288,829	50,35
289,037	124,07
289,246	87,21
289,455	119,98
289,663	91,31
289,872	97,45
290,08	99,5
290,289	169,13
290,497	25,77
290,706	62,63
290,914	9,39
291,123	128,17
291,331	117,93
291,54	156,84
291,748	271,53
291,957	171,18
292,165	128,17
292,373	-17,24
292,582	83,11
292,79	91,31
292,999	212,14
293,207	142,5
293,415	79,02
293,624	74,92
293,832	97,45
294,041	140,46
294,249	72,87
294,457	52,39
294,666	189,61
294,874	62,63
295,082	146,6
295,291	160,94
295,499	142,5
295,707	169,13
295,915	105,64
296,124	85,16
296,332	193,7
296,54	103,59
296,749	154,79
296,957	169,13
297,165	103,59
297,373	70,83
297,581	128,17
297,79	122,02
297,998	58,54
298,206	91,31
298,414	140,46
298,622	181,42
298,831	156,84
299,039	64,68
299,247	232,62
299,455	126,12
299,663	128,17
299,871	72,87
300,08	79,02
300,288	111,78
300,496	85,16
300,704	1,19
300,912	87,21
301,12	70,83
301,328	89,26
301,536	130,22
301,744	33,96
301,952	89,26
302,16	156,84
302,368	132,26
302,576	119,98
302,784	175,27
302,992	48,3
303,2	105,64
303,408	76,97
303,616	76,97
303,824	203,94
304,032	122,02
304,24	154,79
304,448	138,41
304,656	107,69
304,864	148,65
305,072	130,22
305,28	134,31
305,488	124,07
305,696	132,26
305,904	72,87
306,111	66,73
306,319	91,31
306,527	138,41
306,735	136,36
306,943	255,14
307,151	107,69
307,359	66,73
307,566	181,42
307,774	201,9
307,982	140,46
308,19	85,16
308,398	83,11
308,605	122,02
308,813	36,01
309,021	66,73
309,229	183,46
309,436	54,44
309,644	140,46
309,852	144,55
310,06	183,46
310,267	48,3
310,475	115,88
310,683	85,16
310,89	95,4
311,098	138,41
311,306	124,07
311,513	181,42
311,721	97,45
311,929	81,07
312,136	156,84
312,344	91,31
312,552	111,78
312,759	40,11
312,967	115,88
313,174	111,78
313,382	124,07
313,589	111,78
313,797	216,23
314,005	197,8
314,212	175,27
314,42	66,73
314,627	169,13
314,835	140,46
315,042	158,89
315,25	99,5
315,457	79,02
315,665	50,35
315,872	187,56
316,08	128,17
316,287	79,02
316,495	351,4
316,702	119,98
316,909	66,73
317,117	220,33
317,324	144,55
317,532	197,8
317,739	68,78
317,946	72,87
318,154	-2,9
318,361	122,02
318,569	150,7
318,776	40,11
318,983	95,4
319,191	97,45
319,398	132,26
319,605	115,88
319,813	138,41
320,02	60,59
320,227	175,27
320,434	173,22
320,642	156,84
320,849	128,17
321,056	138,41
321,264	126,12
321,471	148,65
321,678	156,84
321,885	122,02
322,092	128,17
322,3	97,45
322,507	58,54
322,714	187,56
322,921	91,31
323,128	119,98
323,336	85,16
323,543	193,7
323,75	197,8
323,957	197,8
324,164	99,5
324,371	185,51
324,578	74,92
324,786	165,03
324,993	162,98
325,2	140,46
325,407	13,48
325,614	165,03
325,821	208,04
326,028	230,57
326,235	111,78
326,442	124,07
326,649	70,83
326,856	138,41
327,063	91,31
327,27	173,22
327,477	117,93
327,684	107,69
327,891	101,55
328,098	154,79
328,305	226,47
328,512	171,18
328,719	162,98
328,926	326,82
329,133	144,55
329,34	230,57
329,546	203,94
329,753	136,36
329,96	101,55
330,167	160,94
330,374	212,14
330,581	201,9
330,788	146,6
330,995	179,37
331,201	152,74
331,408	124,07
331,615	99,5
331,822	115,88
332,029	99,5
332,235	160,94
332,442	81,07
332,649	169,13
332,856	119,98
333,062	185,51
333,269	113,83
333,476	173,22
333,683	197,8
333,889	177,32
334,096	148,65
334,303	160,94
334,509	144,55
334,716	140,46
334,923	205,99
335,129	95,4
335,336	195,75
335,543	154,79
335,749	177,32
335,956	232,62
336,163	122,02
336,369	150,7
336,576	156,84
336,782	144,55
336,989	189,61
337,196	195,75
337,402	165,03
337,609	146,6
337,815	148,65
338,022	214,18
338,228	175,27
338,435	296,1
338,641	259,24
338,848	257,19
339,054	189,61
339,261	185,51
339,467	122,02
339,674	150,7
339,88	214,18
340,087	171,18
340,293	171,18
340,5	124,07
340,706	214,18
340,912	122,02
341,119	154,79
341,325	165,03
341,532	238,76
341,738	181,42
341,944	160,94
342,151	171,18
342,357	236,71
342,563	263,33
342,77	140,46
342,976	158,89
343,182	361,64
343,389	251,05
343,595	205,99
343,801	167,08
344,007	246,95
344,214	162,98
344,42	236,71
344,626	263,33
344,832	228,52
345,039	226,47
345,245	187,56
345,451	160,94
345,657	255,14
345,864	165,03
346,07	181,42
346,276	255,14
346,482	273,57
346,688	279,72
346,894	240,81
347,1	277,67
347,307	183,46
347,513	312,49
347,719	244,9
347,925	169,13
348,131	150,7
348,337	289,96
348,543	246,95
348,749	169,13
348,955	285,86
349,161	199,85
349,367	320,68
349,573	328,87
349,779	285,86
349,985	238,76
350,191	189,61
350,397	189,61
350,603	224,42
350,809	298,15
351,015	257,19
351,221	287,91
351,427	306,34
351,633	267,43
351,839	298,15
352,045	240,81
352,251	312,49
352,457	246,95
352,663	228,52
352,869	214,18
353,075	251,05
353,28	328,87
353,486	222,38
353,692	246,95
353,898	261,29
354,104	242,85
354,31	283,81
354,515	281,77
354,721	339,11
354,927	312,49
355,133	302,25
355,339	298,15
355,544	357,54
355,75	326,82
355,956	369,83
356,162	259,24
356,367	222,38
356,573	304,29
356,779	249
356,984	296,1
357,19	341,16
357,396	337,06
357,602	433,32
357,807	322,73
358,013	433,32
358,218	378,02
358,424	310,44
358,63	304,29
358,835	296,1
359,041	281,77
359,247	310,44
359,452	326,82
359,658	304,29
359,863	337,06
360,069	330,92
360,274	363,69
360,48	398,5
360,685	367,78
360,891	324,77
361,097	304,29
361,302	296,1
361,508	464,04
361,713	400,55
361,918	439,46
362,124	371,88
362,329	326,82
362,535	353,45
362,74	345,25
362,946	365,73
363,151	345,25
363,357	433,32
363,562	367,78
363,767	314,53
363,973	394,4
364,178	353,45
364,383	449,7
364,589	423,08
364,794	400,55
365	386,21
365,205	425,12
365,41	396,45
365,615	474,28
365,821	328,87
366,026	457,89
366,231	445,6
366,437	492,71
366,642	400,55
366,847	527,52
367,052	416,93
367,258	386,21
367,463	466,08
367,668	365,73
367,873	484,52
368,078	457,89
368,284	365,73
368,489	429,22
368,694	472,23
368,899	525,47
369,104	435,36
369,309	468,13
369,515	435,36
369,72	568,48
369,925	466,08
370,13	488,61
370,335	533,67
370,54	439,46
370,745	470,18
370,95	548
371,155	515,23
371,36	507,04
371,565	496,8
371,77	539,81
371,975	435,36
372,18	640,16
372,385	523,43
372,59	603,3
372,795	480,42
373	588,96
373,205	480,42
373,41	566,43
373,615	509,09
373,82	408,74
374,025	492,71
374,23	459,94
374,435	568,48
374,64	607,39
374,845	595,11
375,05	558,24
375,254	605,35
375,459	537,76
375,664	504,99
375,869	562,34
376,074	529,57
376,279	484,52
376,483	541,86
376,688	488,61
376,893	681,12
377,098	519,33
377,303	591,01
377,507	582,82
377,712	681,12
377,917	611,49
378,122	574,63
378,326	679,07
378,531	552,1
378,736	554,15
378,94	617,63
379,145	611,49
379,35	543,91
379,554	578,72
379,759	562,34
379,964	689,31
380,168	578,72
380,373	572,58
380,578	728,22
380,782	679,07
380,987	607,39
381,191	709,79
381,396	687,26
381,601	703,65
381,805	629,92
382,01	615,59
382,214	654,5
382,419	644,26
382,623	644,26
382,828	693,41
383,032	580,77
383,237	582,82
383,441	605,35
383,646	648,35
383,85	629,92
384,055	722,08
384,259	711,84
384,464	728,22
384,668	525,47
384,872	648,35
385,077	652,45
385,281	713,89
385,486	656,54
385,69	679,07
385,894	687,26
386,099	728,22
386,303	701,6
386,507	832,67
386,712	754,85
386,916	713,89
387,12	664,74
387,325	867,49
387,529	816,29
387,733	855,2
387,937	752,8
388,142	767,13
388,346	715,94
388,55	742,56
388,754	799,9
388,959	744,61
389,163	769,18
389,367	795,81
389,571	763,04
389,775	773,28
389,98	844,96
390,184	728,22
390,388	795,81
390,592	781,47
390,796	711,84
391	744,61
391,204	754,85
391,409	842,91
391,613	832,67
391,817	824,48
392,021	984,22
392,225	810,14
392,429	789,66
392,633	836,77
392,837	902,3
393,041	885,92
393,245	849,05
393,449	910,49
393,653	957,6
393,857	902,3
394,061	922,78
394,265	1031,32
394,469	890,01
394,673	961,69
394,877	971,93
395,081	1049,75
395,285	1016,99
395,489	896,16
395,693	984,22
395,896	1010,84
396,1	1012,89
396,304	978,08
396,508	943,26
396,712	986,27
396,916	1006,75
397,12	1045,66
397,323	943,26
397,527	842,91
397,731	1082,52
397,935	988,32
398,139	1002,65
398,342	1086,62
398,546	955,55
398,75	1002,65
398,954	930,97
399,157	1088,67
399,361	1066,14
399,565	959,64
399,769	1121,43
399,972	1098,91
400,176	1078,43
400,38	1107,1
400,583	1090,71
400,787	1084,57
400,991	1178,78
401,194	1182,87
401,398	1053,85
401,601	1172,63
401,805	1154,2
402,009	1313,94
402,212	1213,59
402,416	1254,55
402,619	1182,87
402,823	1156,25
403,026	1162,39
403,23	1115,29
403,433	1318,04
403,637	1123,48
403,841	1238,17
404,044	1305,75
404,247	1336,47
404,451	1322,13
404,654	1277,08
404,858	1346,71
405,061	1234,07
405,265	1227,93
405,468	1404,05
405,672	1146,01
405,875	1344,66
406,078	1379,48
406,282	1277,08
406,485	1199,26
406,689	1324,18
406,892	1410,2
407,095	1227,93
407,299	1369,24
407,502	1352,85
407,705	1397,91
407,909	1262,74
408,112	1426,58
408,315	1379,48
408,518	1479,83
408,722	1457,3
408,925	1418,39
409,128	1504,4
409,331	1399,96
409,535	1547,41
409,738	1426,58
409,941	1639,57
410,144	1436,82
410,347	1490,07
410,551	1490,07
410,754	1465,49
410,957	1578,13
411,16	1623,19
411,363	1565,84
411,566	1498,26
411,769	1574,03
411,973	1590,42
412,176	1621,14
412,379	1737,87
412,582	1604,75
412,785	1569,94
412,988	1555,6
413,191	1633,43
413,394	1598,61
413,597	1664,15
413,8	1619,09
414,003	1801,36
414,206	1727,63
414,409	1684,62
414,612	1649,81
414,815	1617,04
415,018	1649,81
415,221	1639,57
415,424	1782,93
415,627	1772,69
415,83	1803,41
416,033	1735,82
416,235	1754,26
416,438	1877,13
416,641	1801,36
416,844	1875,09
417,047	1703,06
417,25	1758,35
417,453	1893,52
417,655	1688,72
417,858	1836,17
418,061	1795,22
418,264	1852,56
418,467	1809,55
418,669	1803,41
418,872	1862,8
419,075	1957
419,278	1877,13
419,48	1985,68
419,683	1858,7
419,886	1768,59
420,089	2008,2
420,291	1979,53
420,494	1926,29
420,697	1875,09
420,899	1957
421,102	1930,38
421,305	1979,53
421,507	1909,9
421,71	2049,16
421,912	2036,88
422,115	2032,78
422,318	2004,11
422,52	2032,78
422,723	2061,45
422,925	2147,47
423,128	2188,43
423,33	1909,9
423,533	1922,19
423,735	2147,47
423,938	2131,08
424,14	2135,18
424,343	2313,35
424,545	2147,47
424,748	2077,83
424,95	2040,97
425,153	2194,57
425,355	2174,09
425,558	2251,91
425,76	2258,06
425,962	2208,9
426,165	2131,08
426,367	2319,5
426,57	2360,45
426,772	2253,96
426,974	2503,81
427,177	2188,43
427,379	2247,82
427,581	2339,97
427,784	2407,56
427,986	2243,72
428,188	2374,79
428,39	2346,12
428,593	2331,78
428,795	2477,19
428,997	2495,62
429,2	2307,21
429,402	2610,31
429,604	2585,73
429,806	2337,93
430,008	2489,48
430,211	2501,76
430,413	2509,96
430,615	2528,39
430,817	2669,7
431,019	2638,98
431,221	2645,12
431,423	2538,63
431,626	2669,7
431,828	2655,36
432,03	2469
432,232	2731,14
432,434	2643,07
432,636	2833,54
432,838	2602,11
433,04	2720,9
433,242	2776,19
433,444	2729,09
433,646	2729,09
433,848	2759,81
434,05	2847,87
434,252	2833,54
434,454	2618,5
434,656	2825,34
434,858	2882,69
435,06	2868,35
435,262	2800,77
435,464	3009,66
435,666	3046,52
435,868	2886,78
436,07	3071,1
436,271	3171,45
436,473	2931,84
436,675	3026,04
436,877	3110,01
437,079	2917,5
437,281	2937,98
437,482	2987,13
437,684	3187,83
437,886	3044,48
438,088	3052,67
438,29	3087,48
438,491	3005,56
438,693	2915,45
438,895	3138,68
439,097	3406,97
439,298	3196,03
439,5	3150,97
439,702	3069,05
439,903	3114,11
440,105	3271,8
440,307	3535,99
440,508	3382,39
440,71	3449,97
440,912	3228,79
441,113	3064,96
441,315	3331,19
441,517	3335,29
441,718	3615,86
441,92	3355,77
442,121	3351,67
442,323	3417,21
442,524	3488,89
442,726	3568,76
442,928	3474,55
443,129	3523,7
443,331	3409,01
443,532	3497,08
443,734	3411,06
443,935	3753,07
444,136	3456,12
444,338	3546,23
444,539	3529,84
444,741	3812,46
444,942	3546,23
445,144	3513,46
445,345	3724,4
445,546	3710,07
445,748	3542,13
445,949	3570,8
446,151	3677,3
446,352	3736,69
446,553	3634,29
446,755	3611,76
446,956	3857,52
447,157	3693,68
447,359	3804,27
447,56	3832,94
447,761	3687,54
447,962	3953,77
448,164	4013,17
448,365	3613,81
448,566	3814,51
448,767	3839,09
448,969	4076,65
449,17	3935,34
449,371	3779,7
449,572	3863,66
449,773	3834,99
449,974	4154,48
450,176	4076,65
450,377	4146,28
450,578	4123,76
450,779	3943,53
450,98	3830,9
451,181	3896,43
451,382	3880,05
451,583	4009,07
451,784	4080,75
451,986	4383,85
452,187	4025,45
452,388	4140,14
452,589	3933,29
452,79	4269,16
452,991	3845,23
453,192	4349,03
453,393	4088,94
453,594	4437,09
453,795	3970,16
453,995	4129,9
454,196	4177
454,397	4310,12
454,598	4238,44
454,799	4324,46
455	4383,85
455,201	4338,79
455,402	4437,09
455,603	4179,05
455,804	4602,98
456,004	4772,96
456,205	4414,57
456,406	4469,86
456,607	4611,17
456,808	4768,87
457,008	4512,87
457,209	4457,57
457,41	4836,45
457,611	4596,84
457,811	4850,78
458,012	4568,16
458,213	4863,07
458,414	4744,29
458,614	4715,62
458,815	4736,1
459,016	4906,08
459,216	5031,01
459,417	5076,06
459,618	5031,01
459,818	4883,55
460,019	4856,93
460,22	5022,81
460,42	5117,02
460,621	4828,26
460,821	5270,62
461,022	5133,4
461,223	4926,56
461,423	5145,69
461,624	5436,5
461,824	5266,52
462,025	5170,27
462,225	5278,81
462,426	5618,77
462,626	5364,82
462,827	5438,55
463,027	5485,65
463,228	5512,28
463,428	5469,27
463,628	5588,05
463,829	5846,1
464,029	5444,7
464,23	5798,99
464,43	5643,35
464,63	5669,97
464,831	5839,95
465,031	6044,75
465,231	6005,84
465,432	6165,58
465,632	5960,78
465,832	5915,73
466,033	6317,13
466,233	6165,58
466,433	5989,46
466,634	6161,48
466,834	6603,85
467,034	6167,63
467,234	6634,57
467,435	6536,26
467,635	6777,92
467,835	6243,4
468,035	6872,13
468,235	6476,87
468,436	6685,76
468,636	6700,1
468,836	6714,44
469,036	7048,26
469,236	6753,35
469,436	6777,92
469,636	7195,71
469,836	6845,51
470,037	7169,09
470,237	6999,1
470,437	7124,03
470,637	7177,28
470,837	7308,35
471,037	7306,3
471,237	7533,62
471,437	7347,26
471,637	7740,47
471,837	7795,76
472,037	7664,69
472,237	7713,84
472,437	7912,5
472,637	8191,02
472,837	7982,13
473,036	8025,14
473,236	8299,56
473,436	8289,32
473,636	8481,83
473,836	8322,09
474,036	8731,69
474,236	8746,02
474,436	8856,61
474,635	8913,95
474,835	8932,39
475,035	9430,04
475,235	9577,5
475,435	9737,24
475,634	9368,6
475,834	9802,77
476,034	9989,14
476,234	9747,48
476,433	10021,91
476,633	9841,68
476,833	10527,75
477,033	10200,08
477,232	10617,86
477,432	10005,52
477,632	10847,24
477,831	10589,19
478,031	10613,77
478,231	11154,43
478,43	10988,55
478,63	10984,45
478,829	11027,46
479,029	11353,09
479,229	11510,78
479,428	11592,7
479,628	11924,47
479,827	12004,34
480,027	11838,45
480,226	11719,67
480,426	12076,02
480,625	12098,55
480,825	12606,44
481,024	12344,3
481,224	13001,7
481,423	12678,12
481,623	12927,97
481,822	12901,35
482,021	13226,98
482,221	13267,94
482,42	13089,76
482,62	13456,35
482,819	13460,45
483,018	13542,36
483,218	13571,04
483,417	13870,04
483,616	13890,52
483,816	14060,5
484,015	14302,16
484,214	14519,25
484,414	14777,29
484,613	14709,71
484,812	14828,49
485,011	14851,02
485,211	14959,56
485,41	14832,58
485,609	15141,83
485,808	15168,45
486,008	15573,95
486,207	15283,14
486,406	15344,58
486,605	15547,33
486,804	15649,72
487,003	15831,99
487,203	16331,7
487,402	15928,25
487,601	16241,59
487,8	16061,37
487,999	16122,8
488,198	16249,78
488,397	16370,61
488,596	16550,83
488,795	16780,2
488,994	16815,02
489,193	16847,79
489,392	17251,24
489,591	17230,76
489,79	17187,75
489,989	17249,19
490,188	17468,32
490,387	17552,29
490,586	17720,22
490,785	17775,52
490,984	17578,91
491,183	18117,53
491,382	17714,08
491,581	17953,69
491,779	18023,32
491,978	17959,83
492,177	18000,79
492,376	18187,16
492,575	18434,96
492,774	18432,91
492,972	18629,52
493,171	18656,14
493,37	18518,93
493,569	18996,1
493,768	18979,72
493,966	19272,58
494,165	18975,63
494,364	19331,97
494,563	19043,21
494,761	19164,04
494,96	19157,89
495,159	19397,51
495,357	19010,44
495,556	19665,79
495,755	19094,41
495,953	19903,35
496,152	19557,25
496,35	19784,57
496,549	19608,45
496,748	19882,88
496,946	19737,47
497,145	19946,36
497,343	19856,25
497,542	19991,42
497,74	19968,89
497,939	20568,94
498,137	20269,94
498,336	20218,74
498,534	19929,98
498,733	20028,28
498,931	20491,12
499,13	20599,66
499,328	20495,22
499,527	21078,89
499,725	20495,22
499,924	20710,25
500,122	20650,86
500,32	20964,2
500,519	20753,26
500,717	20271,99
500,915	21013,35
501,114	21037,93
501,312	21013,35
501,51	21136,23
501,709	21197,67
501,907	21226,34
502,105	21037,93
502,304	21404,52
502,502	21525,35
502,7	21472,1
502,898	21359,46
503,097	21252,97
503,295	21474,15
503,493	21674,85
503,691	21750,62
503,889	22174,55
504,088	21947,23
504,286	22256,47
504,484	21941,08
504,682	21930,84
504,88	21943,13
505,078	22084,44
505,276	21953,37
505,474	22272,85
505,672	21863,26
505,871	21988,19
506,069	22629,2
506,267	22297,43
506,465	22231,9
506,663	22385,49
506,861	22483,8
507,059	22641,49
507,257	22891,34
507,455	22856,53
507,653	23106,38
507,851	22987,6
508,049	22768,46
508,246	23288,65
508,444	23251,78
508,642	23714,62
508,84	23677,76
509,038	23499,59
509,236	23780,16
509,434	23247,69
509,632	23638,85
509,829	23862,08
510,027	23409,48
510,225	23546,69
510,423	24120,12
510,621	24087,36
510,818	24329,02
511,016	24333,11
511,214	24064,83
511,412	24865,58
511,609	24476,47
511,807	24566,58
512,005	24707,89
512,203	24892,21
512,4	24572,72
512,598	25002,8
512,796	24961,84
512,993	25615,14
513,191	25590,56
513,389	25389,86
513,586	26026,78
513,784	25752,35
513,981	25527,08
514,179	25754,4
514,377	25754,4
514,574	26366,74
514,772	26415,9
514,969	26735,38
515,167	26385,18
515,364	27044,62
515,562	26663,7
515,759	27179,79
515,957	26667,8
516,154	27198,22
516,352	27093,77
516,549	27368,2
516,746	27679,49
516,944	28005,12
517,141	27863,81
517,339	27640,58
517,536	28312,31
517,733	27927,3
517,931	28084,99
518,128	28336,89
518,325	28226,3
518,523	28805,88
518,72	28521,21
518,917	29500,14
519,115	29305,58
519,312	29420,27
519,509	29514,47
519,707	29430,51
519,904	29412,07
520,101	30022,37
520,298	29625,06
520,495	29715,17
520,693	29924,07
520,89	29760,23
521,087	30321,37
521,284	30835,41
521,481	30462,68
521,678	30925,52
521,876	30507,74
522,073	30896,85
522,27	30524,12
522,467	30591,7
522,664	30898,9
522,861	31003,35
523,058	30948,05
523,255	31173,33
523,452	31476,43
523,649	31617,74
523,846	31519,43
524,043	31634,12
524,24	31722,18
524,437	32092,86
524,634	32252,61
524,831	32279,23
525,028	32225,98
525,225	32316,09
525,422	32238,27
525,619	32572,09
525,816	32215,74
526,013	33182,38
526,209	32940,72
526,406	32811,7
526,603	32658,1
526,8	33735,34
526,997	33440,43
527,194	33956,52
527,39	33403,56
527,587	33587,88
527,784	33575,59
527,981	33268,4
528,177	33256,11
528,374	33999,52
528,571	33872,55
528,768	34122,4
528,964	34013,86
529,161	33997,48
529,358	34089,63
529,554	33870,5
529,751	34310,82
529,948	33850,02
530,144	33864,36
530,341	34394,78
530,537	34421,41
530,734	34818,71
530,931	34712,22
531,127	35050,13
531,324	34923,16
531,52	35007,12
531,717	35097,24
531,913	34980,5
532,11	34892,44
532,306	35183,25
532,503	35127,95
532,699	34923,16
532,896	34998,93
533,092	34673,31
533,289	35693,19
533,485	36283,01
533,682	36153,99
533,878	36278,91
534,074	35101,33
534,271	36000,39
534,467	35443,34
534,664	35408,53
534,86	35930,76
535,056	36319,87
535,253	36119,17
535,449	36342,4
535,645	36252,29
535,841	36508,29
536,038	35953,29
536,234	36330,11
536,43	36856,44
536,626	36899,45
536,823	36360,83
537,019	36733,56
537,215	36870,78
537,411	37474,93
537,607	36678,27
537,804	36840,06
538	36514,43
538,196	36500,09
538,392	36831,86
538,588	37567,09
538,784	37544,56
538,98	37614,19
539,176	37624,43
539,373	38181,48
539,569	37472,88
539,765	37333,62
539,961	37943,91
540,157	37911,14
540,353	38253,15
540,549	38683,23
540,745	37997,16
540,941	38113,89
541,137	37939,82
541,333	38591,07
541,528	38300,26
541,724	38304,35
541,92	38427,23
542,116	38584,93
542,312	38509,15
542,508	38793,82
542,704	38498,91
542,9	38242,92
543,096	38359,65
543,291	38476,38
543,487	38804,06
543,683	39285,33
543,879	38947,42
544,075	38648,41
544,27	39029,34
544,466	39156,31
544,662	38802,01
544,858	39823,95
545,053	40131,14
545,249	40045,13
545,445	39725,64
545,64	39828,04
545,836	39647,82
546,032	39541,33
546,227	39363,15
546,423	39613,01
546,619	39414,35
546,814	39678,54
547,01	39496,27
547,205	39825,99
547,401	39688,78
547,597	40094,28
547,792	39825,99
547,988	40208,97
548,183	39891,53
548,379	40645,18
548,574	39899,72
548,77	40094,28
548,965	40028,74
549,161	40299,08
549,356	39606,86
549,552	40862,27
549,747	40325,7
549,942	40110,66
550,138	40274,5
550,333	40178,25
550,529	40583,74
550,724	41177,65
550,919	40434,24
551,115	40944,19
551,31	40268,36
551,505	40968,76
551,701	40727,1
551,896	40596,03
552,091	41265,72
552,287	41075,26
552,482	40839,74
552,677	40727,1
552,872	41034,3
553,067	41060,92
553,263	41206,33
553,458	41044,54
553,653	40675,9
553,848	41376,31
554,043	41318,96
554,239	41923,11
554,434	41761,33
554,629	42445,35
554,824	41658,93
555,019	41800,24
555,214	41939,5
555,409	42166,82
555,604	42248,74
555,799	41839,15
555,994	41876,01
556,189	42037,8
556,384	41890,35
556,579	41749,04
556,774	41214,52
556,969	41722,41
557,164	41495,09
557,359	41927,21
557,554	41839,15
557,749	41781,81
557,944	42431,01
558,139	42150,44
558,334	41816,62
558,529	42428,96
558,724	42041,9
558,918	42328,61
559,113	42365,48
559,308	42578,46
559,503	42523,17
559,698	42840,6
559,893	42486,31
560,087	42936,86
560,282	42267,17
560,477	42144,3
560,672	42160,68
560,866	41841,2
561,061	41873,96
561,256	42998,3
561,45	42746,4
561,645	43395,6
561,84	42920,48
562,034	43084,31
562,229	43039,26
562,424	43444,76
562,618	43065,88
562,813	43166,23
563,008	43209,24
563,202	43364,88
563,397	43430,42
563,591	43346,45
563,786	43397,65
563,98	44335,62
564,175	44179,98
564,369	43502,1
564,564	43577,87
564,758	43651,6
564,953	43188,76
565,147	44145,16
565,342	43672,08
565,536	43760,14
565,731	43735,57
565,925	44708,35
566,119	44427,78
566,314	44724,74
566,508	43813,39
566,703	45107,71
566,897	44100,11
567,091	44636,67
567,286	43995,66
567,48	44493,32
567,674	43723,28
567,868	44403,21
568,063	43858,45
568,257	44763,65
568,451	44438,02
568,646	44288,52
568,84	43737,62
569,034	44108,3
569,228	44669,44
569,422	44558,85
569,616	44513,8
569,811	44677,63
570,005	44710,4
570,199	45242,87
570,393	45033,98
570,587	44984,83
570,781	44759,55
570,975	45244,92
571,169	45279,74
571,364	45097,47
571,558	45169,15
571,752	45480,44
571,946	45070,84
572,14	45361,65
572,334	44993,02
572,528	45582,84
572,722	45259,26
572,916	45709,81
573,109	45765,1
573,303	45873,65
573,497	45310,46
573,691	46107,12
573,885	45484,53
574,079	46301,67
574,273	45543,92
574,467	46303,72
574,661	46084,59
574,854	46078,44
575,048	46000,62
575,242	46418,41
575,436	46684,64
575,63	46983,65
575,823	46617,06
576,017	46557,67
576,211	45746,67
576,405	46463,46
576,598	46225,9
576,792	47020,51
576,986	46705,12
577,18	47200,73
577,373	47229,4
577,567	47200,73
577,761	47047,13
577,954	47772,11
578,148	47272,41
578,341	47632,85
578,535	47624,66
578,729	47925,71
578,922	47155,68
579,116	47598,04
579,309	47075,8
579,503	47444,44
579,696	47643,09
579,89	47942,1
580,083	47690,19
580,277	47509,97
580,47	47526,36
580,664	48130,51
580,857	48001,49
581,051	47964,62
581,244	47811,03
581,437	48599,49
581,631	47639
581,824	47641,04
582,018	47684,05
582,211	48372,17
582,404	48943,55
582,598	48581,06
582,791	48062,93
582,984	48374,22
583,178	48177,61
583,371	48581,06
583,564	48210,38
583,757	48966,08
583,951	49170,88
584,144	49164,73
584,337	48884,16
584,53	49523,13
584,723	49400,25
584,917	49848,75
585,11	48878,02
585,303	49830,32
585,496	48935,36
585,689	49873,33
585,882	49514,94
586,075	49109,44
586,268	48878,02
586,462	49037,76
586,655	49320,38
586,848	50178,48
587,041	49916,34
587,234	49846,71
587,427	49199,55
587,62	49678,77
587,813	49289,66
588,006	49867,19
588,199	49789,36
588,392	50112,94
588,585	50260,4
588,777	49992,11
588,97	49729,97
589,163	50117,04
589,356	49916,34
589,549	50874,79
589,742	49813,94
589,935	50299,31
590,128	49906,1
590,32	50569,64
590,513	50409,9
590,706	51413,4
590,899	50553,26
591,092	51157,41
591,284	51673,49
591,477	51435,93
591,67	51085,73
591,863	51198,37
592,055	51485,08
592,248	51468,7
592,441	50968,99
592,633	51816,85
592,826	51722,65
593,019	51925,39
593,211	51300,76
593,404	51415,45
593,596	51343,77
593,789	51124,64
593,982	51229,08
594,174	51380,63
594,367	51046,82
594,559	51741,08
594,752	51050,91
594,944	51003,81
595,137	51399,07
595,329	51872,15
595,522	51843,48
595,714	51962,26
595,907	51915,15
596,099	52263,31
596,292	52644,23
596,484	52423,05
596,676	51538,33
596,869	52898,18
597,061	52677
597,253	52806,02
597,446	51859,86
597,638	52726,15
597,83	51882,39
598,023	52263,31
598,215	52396,43
598,407	52498,83
598,6	52054,42
598,792	52255,12
598,984	51853,72
599,176	52447,63
599,369	53078,4
599,561	53266,81
599,753	53107,07
599,945	53764,47
600,137	53209,47
600,329	53371,26
600,522	52515,21
600,714	52883,84
600,906	52234,64
601,098	52443,53
601,29	52210,06
601,482	52345,23
601,674	53176,7
601,866	52865,41
602,058	52089,23
602,25	52504,97
602,442	52320,65
602,634	52638,09
602,826	52132,24
603,018	52660,62
603,21	52697,48
603,402	52760,97
603,594	52455,82
603,786	53102,98
603,978	52568,46
604,17	53074,3
604,362	53430,65
604,554	52967,81
604,745	52889,99
604,937	53168,51
605,129	52529,55
605,321	52724,1
605,513	53660,02
605,704	53062,02
605,896	53131,65
606,088	53549,43
606,28	53545,34
606,471	53500,28
606,663	53256,57
606,855	53049,73
607,047	53504,38
607,238	53688,7
607,43	52533,64
607,622	53162,37
607,813	53569,91
608,005	53610,87
608,197	53893,49
608,388	53731,7
608,58	52765,06
608,771	53750,13
608,963	53430,65
609,154	53688,7
609,346	53049,73
609,537	53504,38
609,729	53780,85
609,921	53971,32
610,112	53553,53
610,303	53866,87
610,495	52822,4
610,686	53152,13
610,878	52703,62
611,069	52840,84
611,261	53037,44
611,452	52705,67
611,643	52468,11
611,835	52189,58
612,026	51800,47
612,217	51980,69
612,409	52205,97
612,6	52674,95
612,791	52300,17
612,983	52117,9
613,174	52259,21
613,365	52849,03
613,557	52019,6
613,748	52490,63
613,939	52253,07
614,13	53182,85
614,321	52709,77
614,513	53303,68
614,704	52554,12
614,895	53182,85
615,086	51984,79
615,277	52466,06
615,468	52316,56
615,659	53492,09
615,851	53031,3
616,042	53078,4
616,233	53258,62
616,424	53365,12
616,615	52781,45
616,806	53219,71
616,997	52992,39
617,188	53193,09
617,379	53303,68
617,57	53025,15
617,761	53442,94
617,952	53068,16
618,143	53010,82
618,334	53217,66
618,524	53811,57
618,715	53907,83
618,906	53383,55
619,097	53784,95
619,288	54327,66
619,479	54505,83
619,67	54167,92
619,86	54251,89
620,051	54051,19
620,242	54729,06
620,433	54184,3
620,624	55214,43
620,814	55380,32
621,005	55257,44
621,196	55341,41
621,386	56224,08
621,577	56291,66
621,768	56260,94
621,958	56666,44
622,149	56529,23
622,34	56639,82
622,53	56414,54
622,721	56322,38
622,912	57266,5
623,102	57069,89
623,293	58149,17
623,483	57688,38
623,674	57882,94
623,864	58366,26
624,055	58911,02
624,245	58747,18
624,436	58710,31
624,626	58210,61
624,817	58726,7
625,007	58444,08
625,198	59535,65
625,388	59289,89
625,579	59711,77
625,769	59470,11
625,959	59435,3
626,15	59631,9
626,34	59830,55
626,531	60236,05
626,721	60582,16
626,911	60152,08
627,101	60533,01
627,292	59844,89
627,482	60528,91
627,672	60143,89
627,863	60639,5
628,053	60315,92
628,243	60805,39
628,433	60870,92
628,623	61169,93
628,814	60850,44
629,004	61352,19
629,194	61290,76
629,384	61233,41
629,574	61221,12
629,764	61321,47
629,955	60911,88
630,145	61409,54
630,335	61403,39
630,525	61688,06
630,715	61155,59
630,905	61704,45
631,095	61288,71
631,285	61655,29
631,475	61014,28
631,665	61698,3
631,855	61139,21
632,045	61597,95
632,235	61499,65
632,425	61591,81
632,615	61481,22
632,805	61749,5
632,994	61376,77
633,184	62187,77
633,374	61747,45
633,564	62093,56
633,754	61767,93
633,944	62138,61
634,133	61708,54
634,323	62490,87
634,513	62048,5
634,703	62327,03
634,893	61780,22
635,082	62126,33
635,272	61632,77
635,462	62220,53
635,651	61950,2
635,841	62478,58
636,031	62134,52
636,221	62601,46
636,41	62359,8
636,6	62564,59
636,789	62351,6
636,979	62279,92
637,169	62251,25
637,358	62173,43
637,548	62140,66
637,737	61841,66
637,927	62294,26
638,116	62165,24
638,306	62388,47
638,495	62288,12
638,685	62142,71
638,874	62593,26
639,064	62140,66
639,253	62576,88
639,443	62386,42
639,632	62400,75
639,822	61788,41
640,011	61794,56
640,2	60887,31
640,39	61100,29
640,579	60934,41
640,768	61411,59
640,958	61573,38
641,147	61841,66
641,336	61843,71
641,526	62296,31
641,715	62179,57
641,904	62658,8
642,093	62140,66
642,283	62888,17
642,472	62204,15
642,661	62626,03
642,85	62089,46
643,039	61985,02
643,228	61329,67
643,418	61468,93
643,607	61143,3
643,796	61401,35
643,985	60942,6
644,174	61106,44
644,363	61450,5
644,552	61610,24
644,741	61006,09
644,93	61487,36
645,119	60825,87
645,308	61499,65
645,497	61001,99
645,686	61063,43
645,875	61294,85
646,064	61124,87
646,253	61092,1
646,442	61741,31
646,631	61210,88
646,82	61683,97
647,009	61876,47
647,198	61733,12
647,387	62157,05
647,575	61835,52
647,764	62140,66
647,953	61483,26
648,142	62089,46
648,331	61698,3
648,519	61784,32
648,708	61855,99
648,897	61600
649,086	61997,3
649,274	61933,82
649,463	62075,13
649,652	61671,68
649,84	62056,7
650,029	61659,39
650,218	61962,49
650,406	61681,92
650,595	61468,93
650,784	61647,1
650,972	61657,34
651,161	61155,59
651,349	61403,39
651,538	60963,08
651,726	60633,36
651,915	60819,72
652,104	60688,65
652,292	60492,05
652,481	60705,04
652,669	60922,12
652,857	61253,89
653,046	61886,71
653,234	61968,63
653,423	62138,61
653,611	62513,39
653,8	62128,37
653,988	62675,18
654,176	61786,36
654,365	62122,23
654,553	61837,56
654,741	61720,83
654,93	61819,13
655,118	61778,17
655,306	61739,26
655,494	61790,46
655,683	61436,16
655,871	61450,5
656,059	61163,78
656,247	61161,73
656,436	61221,12
656,624	61356,29
656,812	61133,06
657	61556,99
657,188	61436,16
657,376	61821,18
657,564	61688,06
657,753	61952,25
657,941	61376,77
658,129	61925,63
658,317	61141,25
658,505	61554,94
658,693	60995,85
658,881	61649,15
659,069	60778,76
659,257	61335,81
659,445	61040,9
659,633	61090,05
659,821	61065,48
660,009	61303,04
660,197	61274,37
660,384	61546,75
660,572	61747,45
660,76	61714,68
660,948	62023,93
661,136	61741,31
661,324	61802,75
661,512	62046,46
661,699	62019,83
661,887	62056,7
662,075	61899
662,263	61686,01
662,451	61774,08
662,638	61331,71
662,826	61430,02
663,014	61681,92
663,201	61139,21
663,389	61575,42
663,577	61401,35
663,764	62138,61
663,952	61823,23
664,14	62253,3
664,327	61608,19
664,515	61892,86
664,702	61569,28
664,89	61874,43
665,078	61516,03
665,265	62075,13
665,453	61786,36
665,64	61933,82
665,828	61704,45
666,015	61530,37
666,203	61724,92
666,39	61493,5
666,578	61120,77
666,765	61180,17
666,952	61008,14
667,14	61331,71
667,327	60836,11
667,515	60901,64
667,702	60782,86
667,889	61032,71
668,077	60662,03
668,264	60639,5
668,451	60995,85
668,638	61122,82
668,826	60920,07
669,013	60969,22
669,2	60770,57
669,388	60406,03
669,575	59801,88
669,762	59824,41
669,949	59361,57
670,136	60461,33
670,323	59050,28
670,511	59877,66
670,698	59828,51
670,885	60297,49
671,072	60262,68
671,259	60971,27
671,446	60991,75
671,633	60963,08
671,82	60770,57
672,007	61278,47
672,194	60918,03
672,381	60864,78
672,568	61131,01
672,755	60954,89
672,942	61081,86
673,129	60709,13
673,316	61212,93
673,503	60879,11
673,69	61266,18
673,877	61270,28
674,064	61395,2
674,251	61036,81
674,437	61167,88
674,624	61032,71
674,811	60762,38
674,998	60344,59
675,185	60123,41
675,372	59722,01
675,558	59887,9
675,745	59775,26
675,932	59969,82
676,119	60205,33
676,305	60137,75
676,492	60610,83
676,679	60416,27
676,865	60506,38
677,052	60305,68
677,239	60844,3
677,425	59984,15
677,612	60365,07
677,798	59951,38
677,985	59724,06
678,172	59820,31
678,358	59435,3
678,545	59943,19
678,731	59877,66
678,918	59908,38
679,104	59941,14
679,291	59746,59
679,477	59656,48
679,664	59463,97
679,85	60385,55
680,036	59771,16
680,223	59984,15
680,409	59818,27
680,596	60188,95
680,782	60639,5
680,968	60649,74
681,155	60952,84
681,341	60631,31
681,527	60309,78
681,714	59889,94
681,9	59611,42
682,086	59322,66
682,272	59205,92
682,459	59263,27
682,645	59097,38
682,831	59111,72
683,017	58640,68
683,204	58417,46
683,39	58229,04
683,576	58585,39
683,762	57964,85
683,948	58943,78
684,134	58421,55
684,32	59271,46
684,506	58679,6
684,693	58951,98
684,879	58665,26
685,065	59271,46
685,251	58919,21
685,437	59679
685,623	59009,32
685,809	59484,45
685,995	58581,29
686,181	58994,98
686,366	58790,19
686,552	58917,16
686,738	58716,46
686,924	58820,91
687,11	58462,51
687,296	58513,71
687,482	57960,76
687,668	57585,98
687,853	57481,53
688,039	57710,91
688,225	57436,48
688,411	58036,53
688,597	58054,96
688,782	58536,24
688,968	58732,84
689,154	58591,53
689,34	58224,95
689,525	58526
689,711	58050,87
689,897	57583,93
690,082	57473,34
690,268	57882,94
690,454	57235,78
690,639	57174,34
690,825	57649,47
691,01	57792,82
691,196	57751,87
691,381	58386,74
691,567	57551,16
691,753	58292,53
691,938	57743,67
692,124	57438,53
692,309	57477,44
692,494	57215,3
692,68	57493,82
692,865	56566,09
693,051	56453,45
693,236	56052,05
693,422	55957,84
693,607	56060,24
693,792	56111,44
693,978	55718,23
694,163	56437,07
694,348	56193,36
694,534	56635,72
694,719	56162,64
694,904	56543,56
695,089	56248,66
695,275	55527,77
695,46	55775,58
695,645	55945,56
695,83	55443,8
696,016	55273,82
696,201	55470,43
696,386	55722,33
696,571	56105,3
696,756	54790,5
696,941	56387,92
697,126	55679,32
697,311	56148,31
697,497	55607,64
697,682	55519,58
697,867	55595,35
698,052	56471,88
698,237	55415,13
698,422	55939,41
698,607	55251,3
698,792	55601,5
698,977	54229,36
699,162	54765,93
699,347	54692,2
699,531	54495,6
699,716	55036,26
699,901	54636,9
700,086	54913,38
700,271	54798,69
700,456	54106,48
700,641	54585,71
700,825	54245,74
701,01	54243,69
701,195	54696,3
701,38	54503,79
701,565	54909,28
701,749	55806,3
701,934	55177,57
702,119	55177,57
702,303	54610,28
702,488	53930,36
702,673	53846,39
702,857	54389,1
703,042	53866,87
703,227	54987,11
703,411	53903,73
703,596	54382,96
703,78	53670,26
703,965	54157,68
704,15	53467,51
704,334	53504,38
704,519	53666,17
704,703	53879,16
704,888	53815,67
705,072	53916,02
705,257	53209,47
705,441	53070,21
705,625	52945,28
705,81	53074,3
705,994	53451,13
706,179	53660,02
706,363	54108,53
706,547	54251,89
706,732	53283,2
706,916	53225,85
707,1	53156,22
707,285	53821,81
707,469	53064,06
707,653	53119,36
707,837	53188,99
708,022	53260,67
708,206	53221,76
708,39	52898,18
708,574	53385,6
708,759	52711,81
708,943	52148,62
709,127	51972,5
709,311	51911,06
709,495	52158,86
709,679	52175,25
709,863	52402,57
710,047	51386,78
710,231	52322,7
710,415	51782,04
710,6	51372,44
710,784	52197,77
710,968	51800,47
711,152	52248,97
711,336	51677,59
711,519	51710,36
711,703	51581,34
711,887	51161,5
712,071	51186,08
712,255	50631,08
712,439	50975,14
712,623	51329,44
712,807	50516,39
712,991	50223,53
713,174	50512,3
713,358	50727,33
713,542	50702,76
713,726	50207,15
713,91	49936,82
714,093	50432,43
714,277	50266,54
714,461	49592,76
714,645	49897,91
714,828	49766,84
715,012	50438,57
715,196	50457
715,379	49861,04
715,563	49523,13
715,747	49658,29
715,93	49676,72
716,114	49500,6
716,297	49392,06
716,481	49367,48
716,664	49138,11
716,848	49541,56
717,031	49293,75
717,215	49564,09
717,398	49220,03
717,582	49310,14
717,765	48011,73
717,949	48091,6
718,132	48120,27
718,316	48009,68
718,499	48345,54
718,682	48368,07
718,866	47933,9
719,049	48060,88
719,233	48435,66
719,416	48605,64
719,599	48200,14
719,782	47772,11
719,966	48062,93
720,149	47571,41
720,332	47122,91
720,515	47198,68
720,699	46975,45
720,882	47595,99
721,065	47419,86
721,248	47821,26
721,431	48163,28
721,615	48243,15
721,798	47884,75
721,981	47786,45
722,164	47368,66
722,347	47577,56
722,53	47479,25
722,713	47606,23
722,896	47903,18
723,079	47151,58
723,262	47067,61
723,445	46830,05
723,628	46830,05
723,811	47108,57
723,994	46803,42
724,177	46578,15
724,36	46574,05
724,543	46928,35
724,726	46180,84
724,909	46733,79
725,091	46514,66
725,274	46893,54
725,457	46498,28
725,64	46959,07
725,823	47264,22
726,006	46748,13
726,188	46510,56
726,371	46680,55
726,554	45908,46
726,737	46721,51
726,919	46412,26
727,102	46449,13
727,285	45761,01
727,467	46027,24
727,65	45421,05
727,833	45531,64
728,015	44870,14
728,198	45378,04
728,38	44503,56
728,563	45015,55
728,746	44612,1
728,928	44538,37
729,111	44294,66
729,293	45163
729,476	45048,32
729,658	44777,98
729,841	45863,41
730,023	45599,22
730,205	45599,22
730,388	45074,94
730,57	45396,47
730,753	44870,14
730,935	45019,64
731,117	44622,34
731,3	44685,82
731,482	44706,3
731,664	45578,74
731,847	46111,21
732,029	45185,53
732,211	45580,79
732,394	44384,77
732,576	43680,27
732,758	43424,28
732,94	43426,32
733,122	42668,58
733,305	43108,89
733,487	42732,06
733,669	43254,29
733,851	42764,83
734,033	42678,82
734,215	42809,89
734,397	42844,7
734,58	43084,31
734,762	42422,82
734,944	42734,11
735,126	42695,2
735,308	42293,8
735,49	42766,88
735,672	42322,47
735,854	42437,16
736,036	42510,88
736,218	42590,75
736,399	42476,07
736,581	42992,15
736,763	42938,91
736,945	42523,17
737,127	42187,3
737,309	42093,1
737,491	42594,85
737,672	42531,36
737,854	42623,52
738,036	42879,52
738,218	42545,7
738,4	42121,77
738,581	41617,97
738,763	41015,86
738,945	41208,37
739,127	41183,8
739,308	41671,21
739,49	41386,55
739,672	40467,01
739,853	41157,17
740,035	40667,71
740,216	40542,78
740,398	40266,31
740,58	40954,43
740,761	40895,03
740,943	40872,51
741,124	40708,67
741,306	40671,81
741,487	40237,64
741,669	40391,23
741,85	39909,96
742,032	40192,58
742,213	40059,46
742,394	40241,73
742,576	39930,44
742,757	40307,27
742,939	40282,69
743,12	39998,02
743,301	39070,29
743,483	38855,26
743,664	38779,48
743,845	39211,6
744,027	39021,14
744,208	38847,07
744,389	39619,15
744,57	39643,73
744,752	39526,99
744,933	40268,36
745,114	39580,24
745,295	39733,84
745,476	39897,67
745,657	39389,78
745,839	39361,11
746,02	39182,93
746,201	39178,84
746,382	39064,15
746,563	39062,1
746,744	38795,87
746,925	38791,77
747,106	38980,18
747,287	39012,95
747,468	39459,41
747,649	39113,3
747,83	38562,4
748,011	38396,51
748,192	38826,59
748,373	38611,55
748,554	38609,5
748,735	39318,1
748,915	39924,3
749,096	39934,54
749,277	39735,88
749,458	39725,64
749,639	39653,97
749,82	39248,47
750	38869,59
750,181	38666,84
750,362	38928,98
750,543	38660,7
750,723	39146,07
750,904	39281,24
751,085	39357,01
751,265	39121,49
751,446	40098,37
751,627	40059,46
751,807	40446,53
751,988	40479,3
752,169	41069,11
752,349	40921,66
752,53	41472,56
752,71	40806,97
752,891	41191,99
753,071	41316,92
753,252	42113,58
753,432	41914,92
753,613	42033,71
753,793	41759,28
753,974	41482,8
754,154	41103,93
754,334	41654,83
754,515	41851,44
754,695	41189,94
754,876	41110,07
755,056	40946,23
755,236	41036,34
755,417	41654,83
755,597	41892,4
755,777	41280,05
755,957	42138,15
756,138	43137,56
756,318	42668,58
756,498	42762,78
756,678	43094,55
756,859	42752,54
757,039	42068,52
757,219	42320,42
757,399	42494,5
757,579	42154,54
757,759	41957,93
757,939	42183,21
758,119	41908,78
758,3	41822,76
758,48	41806,38
758,66	42035,75
758,84	42062,38
759,02	42768,93
759,2	43055,64
759,38	42781,21
759,56	43203,1
759,74	43270,68
759,919	42035,75
760,099	41988,65
760,279	41919,02
760,459	41865,77
760,639	42308,13
760,819	42078,76
760,999	41267,76
761,178	41986,6
761,358	41404,98
761,538	41351,73
761,718	41069,11
761,898	40260,16
762,077	40636,99
762,257	40573,5
762,437	40528,45
762,616	40743,48
762,796	40102,47
762,976	40581,7
763,155	40503,87
763,335	40131,14
763,515	40376,9
763,694	40018,5
763,874	39785,04
764,053	39375,44
764,233	39531,09
764,413	39174,74
764,592	39332,43
764,772	39492,18
764,951	39129,69
765,131	38380,13
765,31	38001,25
765,489	38355,55
765,669	38271,59
765,848	38394,46
766,028	38634,08
766,207	38228,58
766,386	38462,05
766,566	38447,71
766,745	37835,37
766,924	38253,15
767,104	37683,82
767,283	37405,3
767,462	37171,83
767,642	37333,62
767,821	36993,65
768	37208,69
768,179	37227,12
768,358	37278,32
768,538	36991,61
768,717	36702,84
768,896	36510,33
769,075	35981,96
769,254	35736,2
769,433	35701,39
769,612	35842,7
769,791	35472,01
769,97	35791,5
770,149	35723,91
770,328	35119,76
770,507	35019,41
770,686	34874,01
770,865	35048,08
771,044	34763,42
771,223	34419,36
771,402	34763,42
771,581	34765,46
771,76	34450,08
771,939	33663,66
772,118	33841,83
772,297	32895,67
772,475	32357,05
772,654	33235,63
772,833	32672,44
773,012	32502,46
773,191	32213,7
773,369	32123,58
773,548	31886,02
773,727	31822,53
773,906	31562,44
774,084	31122,13
774,263	31369,93
774,442	30831,32
774,62	30816,98
774,799	30497,5
774,977	30231,26
775,156	30206,69
775,335	30030,56
775,513	30202,59
775,692	30239,45
775,87	29876,96
776,049	29186,8
776,227	29283,05
776,406	29332,2
776,584	29192,94
776,763	28916,47
776,941	29108,97
777,119	29182,7
777,298	29653,73
777,476	29172,46
777,655	29217,52
777,833	29156,08
778,011	29176,56
778,19	29393,64
778,368	28754,68
778,546	28519,16
778,725	28367,61
778,903	28154,62
779,081	28087,04
779,259	28017,41
779,437	28056,32
779,616	27654,92
779,794	27159,31
779,972	27413,26
780,15	27106,06
780,328	27099,92
780,506	27206,41
780,685	26862,35
780,863	27079,44
781,041	26796,82
781,219	26594,07
781,397	26297,11
781,575	26358,55
781,753	26059,55
781,931	25756,45
782,109	25678,63
782,287	25457,45
782,465	25846,56
782,643	25545,51
782,82	25299,75
782,998	25479,97
783,176	25500,45
783,354	25201,45
783,532	25180,97
783,71	24943,41
783,888	24746,8
784,065	25056,04
784,243	24726,32
784,421	24902,45
784,599	24474,42
784,776	25013,04
784,954	25002,8
785,132	24648,5
785,31	24763,18
785,487	24542
785,665	24482,61
785,842	25010,99
786,02	24359,73
786,198	24421,17
786,375	24060,73
786,553	24101,69
786,73	24433,46
786,908	24181,56
787,085	24144,7
787,263	23626,56
787,44	23489,35
787,618	23284,55
787,795	22877,01
787,973	22610,77
788,15	22518,61
788,328	22922,06
788,505	23417,67
788,682	23335,75
788,86	23059,27
789,037	22659,92
789,215	22545,23
789,392	22414,16
789,569	22594,39
789,746	22514,52
789,924	22360,92
790,101	22231,9
790,278	22135,64
790,455	22004,57
790,633	21478,24
790,81	21531,49
790,987	21750,62
791,164	21672,8
791,341	21717,86
791,518	21642,08
791,695	21472,1
791,873	21506,91
792,05	21439,33
792,227	21369,7
792,404	21701,47
792,581	21619,55
792,758	21388,13
792,935	21582,69
793,112	21603,17
793,289	21330,79
793,466	21326,69
793,643	21320,55
793,82	21250,92
793,996	21142,38
794,173	21132,14
794,35	21187,43
794,527	20980,59
794,704	20882,28
794,881	20771,69
795,057	21007,21
795,234	20587,38
795,411	21007,21
795,588	20280,18
795,765	20587,38
795,941	20513,65
796,118	20108,15
796,295	19946,36
796,471	19975,03
796,648	19936,12
796,825	19776,38
797,001	19690,37
797,178	19952,51
797,354	19590,02
797,531	19555,2
797,708	19473,28
797,884	19596,16
798,061	19252,1
798,237	18983,82
798,414	19243,91
798,59	19002,25
798,767	19215,24
798,943	19028,87
799,119	19039,11
799,296	19239,81
799,472	18953,1
799,649	19123,08
799,825	18750,35
800,001	18381,71
800,178	18387,86
800,354	18428,82
800,53	18480,02
800,707	18799,5
800,883	18578,32
801,059	18686,86
801,235	18928,52
801,411	18346,9
801,588	18035,61
801,764	18170,77
801,94	17992,6
802,116	17957,78
802,292	17949,59
802,468	17785,76
802,645	17798,04
802,821	17501,09
802,997	17464,22
803,173	17316,77
803,349	17374,11
803,525	17259,43
803,701	17329,06
803,877	17343,39
804,053	17355,68
804,229	17595,29
804,405	17441,7
804,581	17439,65
804,756	17306,53
804,932	17181,6
805,108	17062,82
805,284	17431,46
805,46	17081,25
805,636	17398,69
805,812	17339,3
805,987	17083,3
806,163	16747,44
806,339	16855,98
806,515	16626,6
806,69	16421,81
806,866	16616,37
807,042	16563,12
807,217	16350,13
807,393	16765,87
807,569	16698,28
807,744	16782,25
807,92	16589,74
808,096	16884,65
808,271	16597,93
808,447	16008,12
808,622	16190,39
808,798	16221,11
808,973	16352,18
809,149	16352,18
809,324	16044,98
809,5	16663,47
809,675	16188,34
809,851	16192,44
810,026	15911,86
810,201	16063,41
810,377	15993,78
810,552	15772,6
810,728	15862,71
810,903	15621,05
811,078	15745,98
811,253	15530,94
811,429	15547,33
811,604	15725,5
811,779	15246,27
811,955	15223,75
812,13	15379,39
812,305	15315,9
812,48	15100,87
812,655	15461,31
812,83	15262,66
813,006	14932,93
813,181	14967,75
813,356	14746,57
813,531	14556,11
813,706	14707,66
813,881	14580,68
814,056	14488,53
814,231	14662,6
814,406	14545,87
814,581	14506,96
814,756	14390,22
814,931	14476,24
815,106	14519,25
815,281	14752,71
815,456	14592,97
815,631	14336,98
815,805	14238,67
815,98	14316,5
816,155	14205,91
816,33	14402,51
816,505	14644,17
816,68	14216,15
816,854	14228,43
817,029	14158,8
817,204	14250,96
817,379	14117,84
817,553	13988,82
817,728	14101,46
817,903	14119,89
818,077	13902,81
818,252	13941,72
818,427	14066,64
818,601	13962,2
818,776	13779,93
818,95	13728,73
819,125	13734,87
819,299	13691,87
819,474	13757,4
819,648	13788,12
819,823	13669,34
819,997	13681,63
820,172	13462,49
820,346	13425,63
820,521	13708,25
820,695	13255,65
820,87	13368,29
821,044	13591,52
821,218	13542,36
821,393	13824,98
821,567	13638,62
821,741	13216,74
821,916	13038,56
822,09	13229,02
822,264	13198,31
822,438	13100
822,613	12854,25
822,787	12936,17
822,961	12706,79
823,135	13042,66
823,309	12823,53
823,483	12860,39
823,658	12993,51
823,832	12786,66
824,006	12661,74
824,18	13126,63
824,354	12782,57
824,528	12575,72
824,702	12452,84
824,876	12411,89
825,05	12217,33
825,224	12270,58
825,398	12188,66
825,572	11820,02
825,746	11836,41
825,92	12157,94
826,093	11840,5
826,267	12084,21
826,441	11891,7
826,615	11748,34
826,789	12045,3
826,963	12092,4
827,136	12305,39
827,31	12270,58
827,484	12387,31
827,658	12375,02
827,831	12129,27
828,005	12196,85
828,179	12018,68
828,353	11846,65
828,526	11725,82
828,7	11895,8
828,873	11674,62
829,047	11383,8
829,221	11371,52
829,394	11125,76
829,568	11336,7
829,741	11312,13
829,915	11004,93
830,088	11318,27
830,262	11383,8
830,435	11084,8
830,609	11383,8
830,782	11150,34
830,956	11369,47
831,129	10951,68
831,302	11111,43
831,476	10699,78
831,649	10779,65
831,822	10933,25
831,996	10789,89
832,169	10880
832,342	10900,48
832,516	10738,69
832,689	10636,3
832,862	10703,88
833,035	10839,05
833,209	10894,34
833,382	10753,03
833,555	10732,55
833,728	10640,39
833,901	10677,26
834,074	10978,31
834,247	10646,54
834,42	10587,15
834,594	10413,07
834,767	10562,57
834,94	10445,84
835,113	10472,46
835,286	10243,09
835,459	10380,3
835,632	10208,27
835,805	10148,88
835,977	10220,56
836,15	10042,39
836,323	9823,25
836,496	10288,14
836,669	10028,05
836,842	9956,37
837,015	9987,09
837,188	9997,33
837,36	9782,29
837,533	9962,51
837,706	9794,58
837,879	9765,91
838,051	9679,89
838,224	9843,73
838,397	9710,61
838,569	9815,06
838,742	9921,56
838,915	9479,19
839,087	9788,44
839,26	9817,11
839,433	9610,26
839,605	9993,23
839,778	9731,09
839,95	9774,1
840,123	9577,5
840,295	9339,93
840,468	9571,35
840,64	9321,5
840,813	9362,46
840,985	9335,84
841,158	9309,21
841,33	9450,52
841,502	9411,61
841,675	9483,29
841,847	9118,75
842,019	9098,27
842,192	9200,67
842,364	9004,07
842,536	8918,05
842,709	8852,52
842,881	8866,85
843,053	8885,28
843,225	9010,21
843,398	8780,84
843,57	8879,14
843,742	8850,47
843,914	9024,54
844,086	9077,79
844,258	9012,26
844,43	8950,82
844,602	9100,32
844,775	8717,35
844,947	8844,32
845,119	8770,6
845,291	8797,22
845,463	8829,99
845,635	8711,21
845,807	8901,67
845,979	8727,59
846,15	8453,16
846,322	8469,55
846,494	8537,13
846,666	8313,9
846,838	8229,93
847,01	8504,36
847,182	8240,17
847,354	8381,48
847,525	8295,47
847,697	8301,61
847,869	8131,63
848,041	8434,73
848,212	8451,11
848,384	8186,93
848,556	8156,21
848,727	8436,78
848,899	7916,59
849,071	8039,47
849,242	7803,96
849,414	7881,78
849,585	7746,61
849,757	7865,39
849,929	7824,44
850,1	7984,18
850,272	7887,92
850,443	7990,32
850,615	7826,48
850,786	7760,95
850,958	7834,68
851,129	7648,31
851,3	7662,65
851,472	7550,01
851,643	7298,11
851,815	7310,4
851,986	7246,91
852,157	7191,61
852,329	7314,49
852,5	7267,39
852,671	7291,96
852,842	7244,86
853,014	7339,07
853,185	7351,35
853,356	7427,13
853,527	7375,93
853,698	7212,09
853,87	7300,16
854,041	7455,8
854,212	7423,03
854,383	7085,12
854,554	7347,26
854,725	7287,87
854,896	7099,45
855,067	7267,39
855,238	7050,3
855,409	6904,9
855,58	6999,1
855,751	7113,79
855,922	7074,88
856,093	7203,9
856,264	6632,52
856,435	6825,03
856,606	6915,14
856,777	6802,5
856,948	6759,49
857,118	6759,49
857,289	7001,15
857,46	6618,18
857,631	6618,18
857,802	6734,92
857,972	6564,93
858,143	6595,65
858,314	6704,2
858,484	6497,35
858,655	6726,72
858,826	6493,26
858,996	6544,45
859,167	6706,24
859,338	6452,3
859,508	6091,85
859,679	6210,64
859,849	6288,46
860,02	6437,96
860,19	6241,36
860,361	6423,62
860,531	6272,07
860,702	6276,17
860,872	6149,2
861,043	6093,9
861,213	6210,64
861,384	6337,61
861,554	6206,54
861,724	5874,77
861,895	5923,92
862,065	5973,07
862,235	5885,01
862,406	5682,26
862,576	5829,71
862,746	5667,92
862,916	5674,07
863,087	5678,16
863,257	5653,59
863,427	5618,77
863,597	5743,7
863,767	5604,44
863,937	5592,15
864,108	5575,77
864,278	5532,76
864,448	5622,87
864,618	5493,85
864,788	5364,82
864,958	5563,48
865,128	5395,54
865,298	5506,13
865,468	5672,02
865,638	5313,63
865,808	5635,16
865,978	5774,42
866,148	5504,09
866,318	5370,97
866,487	5561,43
866,657	5262,43
866,827	5356,63
866,997	5364,82
867,167	5383,26
867,337	5332,06
867,506	5239,9
867,676	5352,54
867,846	5370,97
868,016	5332,06
868,185	5227,61
868,355	5227,61
868,525	5258,33
868,694	5211,23
868,864	5383,26
869,034	5375,06
869,203	5102,68
869,373	5084,25
869,542	5295,19
869,712	5043,29
869,881	5022,81
870,051	4791,39
870,22	4983,9
870,39	4910,18
870,559	4727,91
870,729	4811,87
870,898	4770,91
871,068	4875,36
871,237	4721,76
871,406	4486,25
871,576	4732
871,745	4760,67
871,914	4801,63
872,084	4660,32
872,253	4598,88
872,422	4582,5
872,591	4572,26
872,761	4588,64
872,93	4916,32
873,099	4557,93
873,268	4754,53
873,437	4422,76
873,607	4605,03
873,776	4539,49
873,945	4539,49
874,114	4392,04
874,283	4371,56
874,452	4324,46
874,621	4293,74
874,79	4353,13
874,959	4418,66
875,128	4252,78
875,297	4269,16
875,466	4217,96
875,635	4265,07
875,804	4117,61
875,973	4209,77
876,142	4189,29
876,31	4117,61
876,479	4068,46
876,648	4244,59
876,817	3998,83
876,986	4017,26
877,155	4103,28
877,323	3873,9
877,492	4125,8
877,661	3994,73
877,829	3982,45
877,998	4029,55
878,167	4043,88
878,335	3974,25
878,504	3865,71
878,673	3937,39
878,841	3783,79
879,01	3896,43
879,178	3810,42
879,347	3943,53
879,515	3978,35
879,684	3818,61
879,852	3757,17
880,021	3671,15
880,189	3679,35
880,358	3767,41
880,526	3744,88
880,695	3538,04
880,863	3597,43
881,031	3544,18
881,2	3605,62
881,368	3660,91
881,536	3636,34
881,705	3605,62
881,873	3482,74
882,041	3513,46
882,21	3626,1
882,378	3640,44
882,546	3581,04
882,714	3554,42
882,882	3503,22
883,05	3521,65
883,219	3595,38
883,387	3570,8
883,555	3607,67
883,723	3406,97
883,891	3550,32
884,059	3320,95
884,227	3556,47
884,395	3439,73
884,563	3570,8
884,731	3370,1
884,899	3402,87
885,067	3347,58
885,235	3234,94
885,403	3327,1
885,571	3179,64
885,739	3138,68
