Data from USB4F035431__14__14-23-52-259.txt Node

Date: Wed Feb 12 14:23:52 CET 2025
User: Versuch 234
Spectrometer: USB4F03543
Trigger mode: 4
Integration Time (sec): 1,000000E-1
Scans to average: 1
Electric dark correction enabled: true
Nonlinearity correction enabled: false
Boxcar width: 0
XAxis mode: Wavelengths
Number of Pixels in Spectrum: 3648
>>>>>Begin Spectral Data<<<<<
179,969	-221,01
180,181	-221,01
180,394	-221,01
180,606	-198,48
180,819	-229,2
181,031	-16,21
181,243	123,05
181,456	-69,46
181,668	24,75
181,88	28,84
182,093	0,17
182,305	-65,36
182,518	-44,88
182,73	57,51
182,942	8,36
183,155	-100,18
183,367	53,42
183,579	-44,88
183,791	22,7
184,004	-34,64
184,216	43,18
184,428	-28,5
184,641	6,31
184,853	-26,45
185,065	-87,89
185,277	-20,31
185,49	59,56
185,702	-59,22
185,914	-28,5
186,126	-75,6
186,338	0,17
186,551	-48,98
186,763	24,75
186,975	-81,75
187,187	10,41
187,399	-91,99
187,612	-53,08
187,824	-48,98
188,036	6,31
188,248	-12,12
188,46	75,95
188,672	-53,08
188,885	-10,07
189,097	45,23
189,309	-1,88
189,521	18,6
189,733	0,17
189,945	24,75
190,157	-38,74
190,369	0,17
190,581	-57,17
190,794	4,27
191,006	-14,17
191,218	-46,93
191,43	14,51
191,642	-69,46
191,854	-32,6
192,066	-36,69
192,278	14,51
192,49	-10,07
192,702	14,51
192,914	-24,4
193,126	-36,69
193,338	8,36
193,55	-18,26
193,762	39,08
193,974	-44,88
194,186	-48,98
194,398	-20,31
194,61	-20,31
194,822	6,31
195,034	8,36
195,246	69,8
195,457	8,36
195,669	-8,02
195,881	20,65
196,093	8,36
196,305	-40,79
196,517	-40,79
196,729	-36,69
196,941	-36,69
197,153	-48,98
197,365	65,71
197,576	-75,6
197,788	18,6
198	14,51
198,212	65,71
198,424	2,22
198,636	-87,89
198,847	-10,07
199,059	-24,4
199,271	-32,6
199,483	-10,07
199,695	-57,17
199,906	102,57
200,118	-34,64
200,33	57,51
200,542	295,08
200,753	0,17
200,965	-36,69
201,177	30,89
201,389	2,22
201,6	-44,88
201,812	0,17
202,024	-44,88
202,235	-26,45
202,447	24,75
202,659	-10,07
202,871	-26,45
203,082	-91,99
203,294	-34,64
203,506	53,42
203,717	-61,27
203,929	4,27
204,141	-85,84
204,352	24,75
204,564	-57,17
204,775	-1,88
204,987	41,13
205,199	30,89
205,41	-16,21
205,622	30,89
205,833	28,84
206,045	10,41
206,257	6,31
206,468	-44,88
206,68	-132,95
206,891	-26,45
207,103	-59,22
207,314	-34,64
207,526	-20,31
207,737	-46,93
207,949	6,31
208,16	-42,84
208,372	14,51
208,583	-12,12
208,795	-24,4
209,006	-44,88
209,218	-40,79
209,429	-106,32
209,641	-8,02
209,852	-32,6
210,064	0,17
210,275	-20,31
210,487	55,47
210,698	41,13
210,909	45,23
211,121	-73,56
211,332	-12,12
211,544	-30,55
211,755	69,8
211,966	67,75
212,178	-26,45
212,389	155,82
212,6	-8,02
212,812	49,32
213,023	32,94
213,234	-8,02
213,446	-28,5
213,657	-61,27
213,868	0,17
214,08	86,19
214,291	26,79
214,502	106,67
214,714	-89,94
214,925	10,41
215,136	-128,85
215,347	-32,6
215,559	-98,13
215,77	-106,32
215,981	69,8
216,192	14,51
216,404	-5,97
216,615	2,22
216,826	-36,69
217,037	-106,32
217,249	-24,4
217,46	55,47
217,671	-12,12
217,882	10,41
218,093	0,17
218,304	53,42
218,516	-20,31
218,727	-73,56
218,938	-55,12
219,149	55,47
219,36	-57,17
219,571	20,65
219,782	-48,98
219,993	34,99
220,205	-77,65
220,416	14,51
220,627	0,17
220,838	16,55
221,049	98,47
221,26	63,66
221,471	18,6
221,682	-5,97
221,893	-8,02
222,104	-81,75
222,315	-94,04
222,526	-46,93
222,737	-42,84
222,948	6,31
223,159	-22,36
223,37	-32,6
223,581	-120,66
223,792	-36,69
224,003	10,41
224,214	-91,99
224,425	53,42
224,636	-116,56
224,847	16,55
225,058	-5,97
225,269	-38,74
225,48	-63,32
225,691	-40,79
225,902	12,46
226,112	-91,99
226,323	-89,94
226,534	-14,17
226,745	-12,12
226,956	-51,03
227,167	-24,4
227,378	14,51
227,589	-73,56
227,799	53,42
228,01	-1,88
228,221	6,31
228,432	-24,4
228,643	-46,93
228,853	-40,79
229,064	-91,99
229,275	-40,79
229,486	6,31
229,697	-26,45
229,907	-61,27
230,118	41,13
230,329	41,13
230,54	-12,12
230,75	-14,17
230,961	-8,02
231,172	18,6
231,383	-22,36
231,593	-10,07
231,804	-63,32
232,015	4,27
232,225	43,18
232,436	4,27
232,647	32,94
232,857	71,85
233,068	24,75
233,279	65,71
233,489	10,41
233,7	-5,97
233,91	-24,4
234,121	-16,21
234,332	-18,26
234,542	-10,07
234,753	-44,88
234,964	-34,64
235,174	-34,64
235,385	63,66
235,595	4,27
235,806	32,94
236,016	-42,84
236,227	2,22
236,437	-73,56
236,648	-26,45
236,858	-10,07
237,069	-94,04
237,279	-32,6
237,49	-55,12
237,7	-71,51
237,911	32,94
238,121	-16,21
238,332	39,08
238,542	26,79
238,753	-26,45
238,963	-18,26
239,174	8,36
239,384	12,46
239,595	-34,64
239,805	-28,5
240,015	8,36
240,226	-44,88
240,436	-10,07
240,647	-48,98
240,857	-36,69
241,067	-38,74
241,278	73,9
241,488	-5,97
241,698	10,41
241,909	-81,75
242,119	55,47
242,329	98,47
242,54	4,27
242,75	-12,12
242,96	-40,79
243,171	-48,98
243,381	-22,36
243,591	-48,98
243,801	77,99
244,012	41,13
244,222	-57,17
244,432	-96,08
244,642	12,46
244,853	-8,02
245,063	47,27
245,273	-48,98
245,483	-1,88
245,694	-46,93
245,904	-3,93
246,114	14,51
246,324	-63,32
246,534	-24,4
246,744	-57,17
246,955	-83,8
247,165	26,79
247,375	34,99
247,585	26,79
247,795	24,75
248,005	-3,93
248,215	32,94
248,425	-34,64
248,636	123,05
248,846	-55,12
249,056	-65,36
249,266	-57,17
249,476	16,55
249,686	-5,97
249,896	-120,66
250,106	-77,65
250,316	-89,94
250,526	22,7
250,736	-118,61
250,946	55,47
251,156	77,99
251,366	-38,74
251,576	-16,21
251,786	-14,17
251,996	-55,12
252,206	59,56
252,416	14,51
252,626	-34,64
252,836	-26,45
253,046	30,89
253,256	57,51
253,466	-34,64
253,676	-8,02
253,885	6,31
254,095	37,03
254,305	-28,5
254,515	-8,02
254,725	-18,26
254,935	-18,26
255,145	8,36
255,355	-14,17
255,564	-28,5
255,774	-38,74
255,984	45,23
256,194	-10,07
256,404	28,84
256,614	28,84
256,823	-1,88
257,033	-59,22
257,243	-5,97
257,453	-38,74
257,662	-20,31
257,872	28,84
258,082	-81,75
258,292	-114,52
258,501	84,14
258,711	77,99
258,921	73,9
259,131	-100,18
259,34	-59,22
259,55	57,51
259,76	-28,5
259,969	-61,27
260,179	-73,56
260,389	49,32
260,598	0,17
260,808	14,51
261,018	-1,88
261,227	49,32
261,437	-94,04
261,647	0,17
261,856	37,03
262,066	16,55
262,275	82,09
262,485	-26,45
262,694	16,55
262,904	-98,13
263,114	-36,69
263,323	0,17
263,533	-46,93
263,742	-46,93
263,952	16,55
264,161	-96,08
264,371	-36,69
264,58	-73,56
264,79	-73,56
264,999	-32,6
265,209	102,57
265,418	37,03
265,628	0,17
265,837	26,79
266,047	8,36
266,256	43,18
266,466	-8,02
266,675	-61,27
266,884	-8,02
267,094	-75,6
267,303	39,08
267,513	-28,5
267,722	-28,5
267,931	-40,79
268,141	-53,08
268,35	2,22
268,559	34,99
268,769	-26,45
268,978	-51,03
269,187	-28,5
269,397	-22,36
269,606	0,17
269,815	-79,7
270,025	24,75
270,234	16,55
270,443	-96,08
270,653	-10,07
270,862	22,7
271,071	26,79
271,28	-46,93
271,49	18,6
271,699	-36,69
271,908	2,22
272,117	-1,88
272,327	-10,07
272,536	0,17
272,745	53,42
272,954	-53,08
273,163	-51,03
273,372	49,32
273,582	4,27
273,791	0,17
274	57,51
274,209	16,55
274,418	45,23
274,627	98,47
274,836	-46,93
275,046	6,31
275,255	47,27
275,464	-3,93
275,673	-48,98
275,882	-40,79
276,091	-8,02
276,3	-10,07
276,509	39,08
276,718	-8,02
276,927	-65,36
277,136	61,61
277,345	-44,88
277,554	-24,4
277,763	28,84
277,972	20,65
278,181	61,61
278,39	0,17
278,599	-16,21
278,808	-34,64
279,017	-48,98
279,226	-40,79
279,435	-10,07
279,644	-8,02
279,853	49,32
280,062	84,14
280,271	-22,36
280,48	-48,98
280,688	-53,08
280,897	18,6
281,106	-67,41
281,315	-69,46
281,524	4,27
281,733	-12,12
281,942	-16,21
282,151	-24,4
282,359	10,41
282,568	8,36
282,777	10,41
282,986	-34,64
283,195	-12,12
283,403	39,08
283,612	-18,26
283,821	8,36
284,03	-75,6
284,238	-5,97
284,447	32,94
284,656	-12,12
284,865	65,71
285,073	-18,26
285,282	-12,12
285,491	-81,75
285,699	-77,65
285,908	-51,03
286,117	37,03
286,325	14,51
286,534	73,9
286,743	-16,21
286,951	-18,26
287,16	-18,26
287,369	-110,42
287,577	-1,88
287,786	6,31
287,995	-24,4
288,203	-48,98
288,412	-38,74
288,62	55,47
288,829	0,17
289,037	-16,21
289,246	30,89
289,455	-89,94
289,663	2,22
289,872	20,65
290,08	-22,36
290,289	45,23
290,497	-73,56
290,706	6,31
290,914	-3,93
291,123	-71,51
291,331	16,55
291,54	-8,02
291,748	118,95
291,957	-87,89
292,165	4,27
292,373	-59,22
292,582	-40,79
292,79	20,65
292,999	10,41
293,207	-48,98
293,415	-75,6
293,624	-48,98
293,832	-42,84
294,041	-87,89
294,249	-73,56
294,457	-48,98
294,666	-55,12
294,874	10,41
295,082	26,79
295,291	0,17
295,499	6,31
295,707	10,41
295,915	16,55
296,124	4,27
296,332	0,17
296,54	-24,4
296,749	49,32
296,957	6,31
297,165	-51,03
297,373	-12,12
297,581	-61,27
297,79	-71,51
297,998	-30,55
298,206	-67,41
298,414	-22,36
298,622	4,27
298,831	49,32
299,039	-73,56
299,247	24,75
299,455	55,47
299,663	77,99
299,871	4,27
300,08	-22,36
300,288	-40,79
300,496	-30,55
300,704	-57,17
300,912	-98,13
301,12	-12,12
301,328	0,17
301,536	-26,45
301,744	-18,26
301,952	28,84
302,16	-122,71
302,368	-85,84
302,576	-5,97
302,784	57,51
302,992	-46,93
303,2	-46,93
303,408	-16,21
303,616	8,36
303,824	-14,17
304,032	53,42
304,24	67,75
304,448	2,22
304,656	-83,8
304,864	90,28
305,072	-32,6
305,28	6,31
305,488	-16,21
305,696	-16,21
305,904	-34,64
306,111	-63,32
306,319	-5,97
306,527	-42,84
306,735	-8,02
306,943	41,13
307,151	-48,98
307,359	18,6
307,566	2,22
307,774	8,36
307,982	14,51
308,19	-51,03
308,398	-18,26
308,605	-30,55
308,813	-100,18
309,021	-57,17
309,229	18,6
309,436	-42,84
309,644	22,7
309,852	20,65
310,06	63,66
310,267	-102,23
310,475	-36,69
310,683	2,22
310,89	-18,26
311,098	34,99
311,306	-75,6
311,513	-48,98
311,721	-3,93
311,929	22,7
312,136	-24,4
312,344	-26,45
312,552	14,51
312,759	-44,88
312,967	63,66
313,174	-10,07
313,382	-3,93
313,589	8,36
313,797	30,89
314,005	0,17
314,212	41,13
314,42	-114,52
314,627	-3,93
314,835	-24,4
315,042	-51,03
315,25	-83,8
315,457	-40,79
315,665	-75,6
315,872	6,31
316,08	37,03
316,287	-10,07
316,495	231,59
316,702	-28,5
316,909	-81,75
317,117	67,75
317,324	-42,84
317,532	-16,21
317,739	-8,02
317,946	4,27
318,154	-5,97
318,361	-40,79
318,569	-87,89
318,776	-1,88
318,983	-36,69
319,191	12,46
319,398	0,17
319,605	-38,74
319,813	-24,4
320,02	-118,61
320,227	32,94
320,434	24,75
320,642	-34,64
320,849	4,27
321,056	-65,36
321,264	49,32
321,471	0,17
321,678	-34,64
321,885	-18,26
322,092	26,79
322,3	30,89
322,507	-108,37
322,714	8,36
322,921	-24,4
323,128	-57,17
323,336	26,79
323,543	45,23
323,75	73,9
323,957	18,6
324,164	16,55
324,371	45,23
324,578	-106,32
324,786	10,41
324,993	16,55
325,2	-34,64
325,407	-67,41
325,614	-65,36
325,821	49,32
326,028	82,09
326,235	51,37
326,442	-14,17
326,649	-18,26
326,856	18,6
327,063	-24,4
327,27	-20,31
327,477	-40,79
327,684	-94,04
327,891	-98,13
328,098	12,46
328,305	75,95
328,512	-55,12
328,719	12,46
328,926	57,51
329,133	-96,08
329,34	92,33
329,546	16,55
329,753	-12,12
329,96	-87,89
330,167	32,94
330,374	-12,12
330,581	0,17
330,788	-94,04
330,995	18,6
331,201	-32,6
331,408	-18,26
331,615	-51,03
331,822	-89,94
332,029	-57,17
332,235	-10,07
332,442	-91,99
332,649	22,7
332,856	-57,17
333,062	-5,97
333,269	-79,7
333,476	-1,88
333,683	-69,46
333,889	2,22
334,096	-1,88
334,303	-14,17
334,509	-42,84
334,716	-98,13
334,923	-14,17
335,129	20,65
335,336	4,27
335,543	-59,22
335,749	-12,12
335,956	41,13
336,163	-77,65
336,369	-20,31
336,576	10,41
336,782	-16,21
336,989	4,27
337,196	-3,93
337,402	-40,79
337,609	-65,36
337,815	-128,85
338,022	10,41
338,228	-1,88
338,435	82,09
338,641	-8,02
338,848	71,85
339,054	65,71
339,261	-57,17
339,467	-59,22
339,674	4,27
339,88	16,55
340,087	-53,08
340,293	-26,45
340,5	-40,79
340,706	47,27
340,912	-89,94
341,119	-57,17
341,325	-73,56
341,532	-57,17
341,738	-30,55
341,944	-18,26
342,151	-3,93
342,357	2,22
342,563	61,61
342,77	-24,4
342,976	-94,04
343,182	92,33
343,389	-8,02
343,595	-44,88
343,801	-16,21
344,007	53,42
344,214	-42,84
344,42	22,7
344,626	-24,4
344,832	-46,93
345,039	12,46
345,245	10,41
345,451	-20,31
345,657	57,51
345,864	-28,5
346,07	32,94
346,276	-59,22
346,482	69,8
346,688	20,65
346,894	-112,47
347,1	-16,21
347,307	-1,88
347,513	47,27
347,719	-44,88
347,925	49,32
348,131	4,27
348,337	94,38
348,543	-32,6
348,749	-30,55
348,955	20,65
349,161	-40,79
349,367	16,55
349,573	30,89
349,779	8,36
349,985	16,55
350,191	-59,22
350,397	6,31
350,603	28,84
350,809	22,7
351,015	-18,26
351,221	-53,08
351,427	51,37
351,633	-81,75
351,839	37,03
352,045	65,71
352,251	80,04
352,457	39,08
352,663	-20,31
352,869	0,17
353,075	-8,02
353,28	24,75
353,486	6,31
353,692	-53,08
353,898	30,89
354,104	-10,07
354,31	-8,02
354,515	-24,4
354,721	30,89
354,927	4,27
355,133	2,22
355,339	-57,17
355,544	14,51
355,75	-8,02
355,956	-81,75
356,162	-34,64
356,367	24,75
356,573	-57,17
356,779	-36,69
356,984	30,89
357,19	18,6
357,396	32,94
357,602	32,94
357,807	39,08
358,013	0,17
358,218	-83,8
358,424	-22,36
358,63	-42,84
358,835	-30,55
359,041	-51,03
359,247	-71,51
359,452	-57,17
359,658	-65,36
359,863	37,03
360,069	59,56
360,274	20,65
360,48	71,85
360,685	4,27
360,891	28,84
361,097	-53,08
361,302	-34,64
361,508	0,17
361,713	6,31
361,918	112,81
362,124	-40,79
362,329	37,03
362,535	6,31
362,74	8,36
362,946	-8,02
363,151	-12,12
363,357	20,65
363,562	-51,03
363,767	-24,4
363,973	20,65
364,178	-57,17
364,383	-67,41
364,589	-12,12
364,794	-59,22
365	37,03
365,205	-61,27
365,41	-34,64
365,615	24,75
365,821	-89,94
366,026	-32,6
366,231	-22,36
366,437	30,89
366,642	-67,41
366,847	37,03
367,052	0,17
367,258	-114,52
367,463	-48,98
367,668	-75,6
367,873	53,42
368,078	10,41
368,284	-61,27
368,489	-53,08
368,694	12,46
368,899	26,79
369,104	-20,31
369,309	-8,02
369,515	-98,13
369,72	88,23
369,925	-104,28
370,13	90,28
370,335	-8,02
370,54	-36,69
370,745	-44,88
370,95	34,99
371,155	63,66
371,36	63,66
371,565	-40,79
371,77	16,55
371,975	-61,27
372,18	90,28
372,385	65,71
372,59	-65,36
372,795	-73,56
373	39,08
373,205	24,75
373,41	6,31
373,615	-106,32
373,82	20,65
374,025	-34,64
374,23	-36,69
374,435	-8,02
374,64	-1,88
374,845	112,81
375,05	-59,22
375,254	-102,23
375,459	16,55
375,664	-32,6
375,869	-48,98
376,074	-59,22
376,279	-57,17
376,483	47,27
376,688	-83,8
376,893	6,31
377,098	-3,93
377,303	-18,26
377,507	32,94
377,712	57,51
377,917	47,27
378,122	53,42
378,326	-26,45
378,531	-40,79
378,736	-65,36
378,94	-18,26
379,145	-3,93
379,35	2,22
379,554	-24,4
379,759	-20,31
379,964	65,71
380,168	-98,13
380,373	-20,31
380,578	-24,4
380,782	34,99
380,987	0,17
381,191	-8,02
381,396	-24,4
381,601	8,36
381,805	4,27
382,01	84,14
382,214	-8,02
382,419	28,84
382,623	51,37
382,828	-20,31
383,032	-89,94
383,237	-24,4
383,441	-59,22
383,646	12,46
383,85	-85,84
384,055	-3,93
384,259	-1,88
384,464	-91,99
384,668	-55,12
384,872	4,27
385,077	-83,8
385,281	-28,5
385,486	-48,98
385,69	-44,88
385,894	39,08
386,099	10,41
386,303	-81,75
386,507	16,55
386,712	41,13
386,916	-26,45
387,12	-71,51
387,325	4,27
387,529	10,41
387,733	4,27
387,937	-28,5
388,142	-91,99
388,346	-137,04
388,55	12,46
388,754	-34,64
388,959	16,55
389,163	61,61
389,367	0,17
389,571	-16,21
389,775	-22,36
389,98	22,7
390,184	-24,4
390,388	-26,45
390,592	-1,88
390,796	-65,36
391	-28,5
391,204	-67,41
391,409	-1,88
391,613	10,41
391,817	-77,65
392,021	-10,07
392,225	16,55
392,429	-44,88
392,633	-91,99
392,837	-48,98
393,041	53,42
393,245	16,55
393,449	-65,36
393,653	-51,03
393,857	-1,88
394,061	75,95
394,265	-71,51
394,469	-32,6
394,673	-22,36
394,877	-14,17
395,081	8,36
395,285	14,51
395,489	-73,56
395,693	14,51
395,896	-40,79
396,1	-77,65
396,304	-24,4
396,508	-98,13
396,712	8,36
396,916	-91,99
397,12	-24,4
397,323	53,42
397,527	-67,41
397,731	20,65
397,935	-12,12
398,139	-18,26
398,342	-22,36
398,546	-8,02
398,75	-77,65
398,954	-79,7
399,157	73,9
399,361	-57,17
399,565	-69,46
399,769	96,43
399,972	-8,02
400,176	-32,6
400,38	-75,6
400,583	24,75
400,787	14,51
400,991	55,47
401,194	-10,07
401,398	-22,36
401,601	-24,4
401,805	4,27
402,009	-44,88
402,212	-48,98
402,416	49,32
402,619	-73,56
402,823	0,17
403,026	-18,26
403,23	-77,65
403,433	22,7
403,637	-8,02
403,841	47,27
404,044	-18,26
404,247	-36,69
404,451	-65,36
404,654	49,32
404,858	-34,64
405,061	-44,88
405,265	-1,88
405,468	-24,4
405,672	-89,94
405,875	-8,02
406,078	32,94
406,282	-81,75
406,485	6,31
406,689	14,51
406,892	51,37
407,095	-81,75
407,299	2,22
407,502	-12,12
407,705	-83,8
407,909	-18,26
408,112	-53,08
408,315	63,66
408,518	61,61
408,722	-100,18
408,925	-53,08
409,128	-8,02
409,331	8,36
409,535	4,27
409,738	-63,32
409,941	98,47
410,144	8,36
410,347	80,04
410,551	45,23
410,754	-12,12
410,957	16,55
411,16	-36,69
411,363	-3,93
411,566	4,27
411,769	32,94
411,973	-69,46
412,176	127,14
412,379	100,52
412,582	53,42
412,785	102,57
412,988	-30,55
413,191	20,65
413,394	51,37
413,597	-32,6
413,8	-53,08
414,003	65,71
414,206	24,75
414,409	-30,55
414,612	22,7
414,815	-44,88
415,018	0,17
415,221	-81,75
415,424	65,71
415,627	-10,07
415,83	12,46
416,033	-12,12
416,235	73,9
416,438	24,75
416,641	-1,88
416,844	16,55
417,047	-130,9
417,25	-65,36
417,453	-10,07
417,655	0,17
417,858	24,75
418,061	-114,52
418,264	63,66
418,467	-55,12
418,669	-42,84
418,872	8,36
419,075	51,37
419,278	12,46
419,48	-69,46
419,683	-40,79
419,886	-55,12
420,089	0,17
420,291	-57,17
420,494	-83,8
420,697	8,36
420,899	6,31
421,102	-28,5
421,305	65,71
421,507	24,75
421,71	-65,36
421,912	4,27
422,115	-122,71
422,318	-71,51
422,52	0,17
422,723	-32,6
422,925	10,41
423,128	63,66
423,33	-163,67
423,533	-10,07
423,735	-48,98
423,938	-63,32
424,14	-18,26
424,343	47,27
424,545	-12,12
424,748	8,36
424,95	-3,93
425,153	-18,26
425,355	18,6
425,558	-16,21
425,76	-55,12
425,962	18,6
426,165	-59,22
426,367	-57,17
426,57	-94,04
426,772	51,37
426,974	-36,69
427,177	-32,6
427,379	-14,17
427,581	28,84
427,784	-8,02
427,986	-61,27
428,188	8,36
428,39	-18,26
428,593	49,32
428,795	-28,5
428,997	37,03
429,2	-22,36
429,402	-38,74
429,604	-26,45
429,806	-53,08
430,008	10,41
430,211	39,08
430,413	32,94
430,615	6,31
430,817	-96,08
431,019	-40,79
431,221	14,51
431,423	-81,75
431,626	-108,37
431,828	-102,23
432,03	-67,41
432,232	39,08
432,434	16,55
432,636	-85,84
432,838	-67,41
433,04	-24,4
433,242	-18,26
433,444	-42,84
433,646	59,56
433,848	39,08
434,05	16,55
434,252	-139,09
434,454	24,75
434,656	-20,31
434,858	22,7
435,06	-73,56
435,262	-10,07
435,464	-28,5
435,666	-8,02
435,868	65,71
436,07	22,7
436,271	-73,56
436,473	-16,21
436,675	0,17
436,877	-32,6
437,079	24,75
437,281	-81,75
437,482	-81,75
437,684	-48,98
437,886	-85,84
438,088	-57,17
438,29	12,46
438,491	14,51
438,693	-42,84
438,895	0,17
439,097	-38,74
439,298	-24,4
439,5	-24,4
439,702	-8,02
439,903	-36,69
440,105	-20,31
440,307	55,47
440,508	57,51
440,71	-34,64
440,912	34,99
441,113	-5,97
441,315	-67,41
441,517	16,55
441,718	-8,02
441,92	32,94
442,121	37,03
442,323	-59,22
442,524	32,94
442,726	41,13
442,928	-57,17
443,129	-1,88
443,331	-34,64
443,532	-40,79
443,734	-87,89
443,935	-3,93
444,136	-77,65
444,338	10,41
444,539	-42,84
444,741	8,36
444,942	0,17
445,144	28,84
445,345	61,61
445,546	-57,17
445,748	-32,6
445,949	-32,6
446,151	-14,17
446,352	0,17
446,553	88,23
446,755	32,94
446,956	8,36
447,157	2,22
447,359	14,51
447,56	-36,69
447,761	-53,08
447,962	-16,21
448,164	41,13
448,365	-89,94
448,566	6,31
448,767	-44,88
448,969	28,84
449,17	-5,97
449,371	-46,93
449,572	61,61
449,773	2,22
449,974	45,23
450,176	41,13
450,377	-1,88
450,578	4,27
450,779	-55,12
450,98	-34,64
451,181	6,31
451,382	12,46
451,583	22,7
451,784	-3,93
451,986	-110,42
452,187	-8,02
452,388	32,94
452,589	55,47
452,79	22,7
452,991	24,75
453,192	14,51
453,393	-73,56
453,594	-34,64
453,795	-16,21
453,995	-51,03
454,196	20,65
454,397	-83,8
454,598	-1,88
454,799	6,31
455	80,04
455,201	-26,45
455,402	39,08
455,603	-57,17
455,804	-51,03
456,004	-81,75
456,205	-110,42
456,406	-36,69
456,607	8,36
456,808	75,95
457,008	-89,94
457,209	-28,5
457,41	-38,74
457,611	63,66
457,811	100,52
458,012	41,13
458,213	-38,74
458,414	-8,02
458,614	0,17
458,815	-32,6
459,016	125,1
459,216	4,27
459,417	-20,31
459,618	-63,32
459,818	-73,56
460,019	-75,6
460,22	12,46
460,42	-69,46
460,621	-71,51
460,821	-24,4
461,022	143,53
461,223	8,36
461,423	-34,64
461,624	-44,88
461,824	-57,17
462,025	-28,5
462,225	-40,79
462,426	57,51
462,626	-1,88
462,827	-53,08
463,027	39,08
463,228	-87,89
463,428	-36,69
463,628	-51,03
463,829	39,08
464,029	-10,07
464,23	-16,21
464,43	-20,31
464,63	-57,17
464,831	-130,9
465,031	73,9
465,231	-75,6
465,432	12,46
465,632	82,09
465,832	-75,6
466,033	-102,23
466,233	-48,98
466,433	88,23
466,634	28,84
466,834	32,94
467,034	-98,13
467,234	-42,84
467,435	-44,88
467,635	2,22
467,835	-16,21
468,035	-16,21
468,235	-81,75
468,436	-8,02
468,636	0,17
468,836	-87,89
469,036	65,71
469,236	-48,98
469,436	-16,21
469,636	49,32
469,836	-28,5
470,037	-16,21
470,237	-102,23
470,437	14,51
470,637	-8,02
470,837	-22,36
471,037	12,46
471,237	-53,08
471,437	22,7
471,637	-22,36
471,837	-34,64
472,037	-40,79
472,237	-51,03
472,437	0,17
472,637	53,42
472,837	-24,4
473,036	12,46
473,236	-1,88
473,436	8,36
473,636	-20,31
473,836	-69,46
474,036	37,03
474,236	-12,12
474,436	-32,6
474,635	2,22
474,835	16,55
475,035	-91,99
475,235	-61,27
475,435	16,55
475,634	-57,17
475,834	-22,36
476,034	-32,6
476,234	-55,12
476,433	-44,88
476,633	24,75
476,833	-30,55
477,033	8,36
477,232	-55,12
477,432	-5,97
477,632	-36,69
477,831	-1,88
478,031	71,85
478,231	-53,08
478,43	-36,69
478,63	-40,79
478,829	-91,99
479,029	-40,79
479,229	-122,71
479,428	-83,8
479,628	-42,84
479,827	-8,02
480,027	-71,51
480,226	39,08
480,426	-65,36
480,625	-30,55
480,825	-32,6
481,024	0,17
481,224	14,51
481,423	-81,75
481,623	24,75
481,822	-87,89
482,021	18,6
482,221	-46,93
482,42	20,65
482,62	-10,07
482,819	-10,07
483,018	8,36
483,218	-94,04
483,417	6,31
483,616	-57,17
483,816	12,46
484,015	32,94
484,214	-12,12
484,414	22,7
484,613	90,28
484,812	-61,27
485,011	-63,32
485,211	24,75
485,41	63,66
485,609	-83,8
485,808	-12,12
486,008	-65,36
486,207	-32,6
486,406	16,55
486,605	-32,6
486,804	6,31
487,003	-48,98
487,203	-34,64
487,402	-48,98
487,601	-1,88
487,8	45,23
487,999	-44,88
488,198	-10,07
488,397	8,36
488,596	4,27
488,795	-106,32
488,994	24,75
489,193	-48,98
489,392	8,36
489,591	-57,17
489,79	-61,27
489,989	49,32
490,188	-5,97
490,387	-48,98
490,586	-69,46
490,785	-8,02
490,984	-10,07
491,183	-8,02
491,382	-14,17
491,581	-53,08
491,779	71,85
491,978	-26,45
492,177	30,89
492,376	-1,88
492,575	-16,21
492,774	-51,03
492,972	-12,12
493,171	-130,9
493,37	8,36
493,569	-18,26
493,768	34,99
493,966	-10,07
494,165	43,18
494,364	106,67
494,563	65,71
494,761	-38,74
494,96	14,51
495,159	8,36
495,357	-40,79
495,556	0,17
495,755	4,27
495,953	-87,89
496,152	-65,36
496,35	12,46
496,549	-3,93
496,748	24,75
496,946	26,79
497,145	-12,12
497,343	-51,03
497,542	-87,89
497,74	-48,98
497,939	2,22
498,137	-48,98
498,336	-38,74
498,534	73,9
498,733	-51,03
498,931	37,03
499,13	-89,94
499,328	-10,07
499,527	114,86
499,725	-10,07
499,924	-67,41
500,122	4,27
500,32	12,46
500,519	59,56
500,717	-24,4
500,915	-61,27
501,114	-40,79
501,312	-28,5
501,51	-10,07
501,709	-30,55
501,907	-22,36
502,105	-118,61
502,304	-61,27
502,502	-16,21
502,7	-30,55
502,898	-10,07
503,097	-51,03
503,295	18,6
503,493	18,6
503,691	-16,21
503,889	-91,99
504,088	-85,84
504,286	47,27
504,484	65,71
504,682	-48,98
504,88	-5,97
505,078	6,31
505,276	-34,64
505,474	16,55
505,672	-57,17
505,871	-20,31
506,069	16,55
506,267	-40,79
506,465	-22,36
506,663	10,41
506,861	-1,88
507,059	-61,27
507,257	-8,02
507,455	28,84
507,653	-53,08
507,851	-48,98
508,049	-91,99
508,246	2,22
508,444	77,99
508,642	-26,45
508,84	-34,64
509,038	-10,07
509,236	32,94
509,434	-30,55
509,632	41,13
509,829	8,36
510,027	-5,97
510,225	-30,55
510,423	-81,75
510,621	-83,8
510,818	102,57
511,016	-8,02
511,214	30,89
511,412	-32,6
511,609	-51,03
511,807	16,55
512,005	-59,22
512,203	73,9
512,4	-34,64
512,598	-40,79
512,796	10,41
512,993	20,65
513,191	-65,36
513,389	-14,17
513,586	55,47
513,784	8,36
513,981	168,1
514,179	32,94
514,377	-77,65
514,574	0,17
514,772	-16,21
514,969	39,08
515,167	20,65
515,364	73,9
515,562	18,6
515,759	104,62
515,957	20,65
516,154	-59,22
516,352	96,43
516,549	61,61
516,746	90,28
516,944	12,46
517,141	-12,12
517,339	-30,55
517,536	41,13
517,733	-40,79
517,931	-89,94
518,128	-32,6
518,325	-20,31
518,523	8,36
518,72	49,32
518,917	22,7
519,115	53,42
519,312	20,65
519,509	24,75
519,707	-91,99
519,904	53,42
520,101	51,37
520,298	49,32
520,495	37,03
520,693	-20,31
520,89	12,46
521,087	-91,99
521,284	59,56
521,481	45,23
521,678	57,51
521,876	39,08
522,073	-14,17
522,27	-8,02
522,467	-79,7
522,664	-1,88
522,861	73,9
523,058	53,42
523,255	-24,4
523,452	57,51
523,649	-3,93
523,846	-8,02
524,043	75,95
524,24	20,65
524,437	84,14
524,634	71,85
524,831	18,6
525,028	86,19
525,225	0,17
525,422	-28,5
525,619	-8,02
525,816	59,56
526,013	139,43
526,209	37,03
526,406	-8,02
526,603	30,89
526,8	69,8
526,997	90,28
527,194	47,27
527,39	80,04
527,587	77,99
527,784	164,01
527,981	112,81
528,177	204,97
528,374	213,16
528,571	377
528,768	219,3
528,964	354,47
529,161	704,67
529,358	2031,76
529,554	7149,63
529,751	28593,91
529,948	63505,63
530,144	63335,65
530,341	64386,26
530,537	64386,26
530,734	64386,26
530,931	64386,26
531,127	64386,26
531,324	64386,26
531,52	64386,26
531,717	64386,26
531,913	64386,26
532,11	64386,26
532,306	64386,26
532,503	64386,26
532,699	43873,81
532,896	26357,53
533,092	3424,37
533,289	2580,61
533,485	2627,71
533,682	1675,41
533,878	1276,06
534,074	882,85
534,271	680,1
534,467	585,89
534,664	399,52
534,86	125,1
535,056	147,62
535,253	170,15
535,449	73,9
535,645	41,13
535,841	-12,12
536,038	-3,93
536,234	-20,31
536,43	82,09
536,626	16,55
536,823	96,43
537,019	16,55
537,215	22,7
537,411	41,13
537,607	-65,36
537,804	0,17
538	10,41
538,196	24,75
538,392	6,31
538,588	84,14
538,784	-16,21
538,98	-67,41
539,176	65,71
539,373	30,89
539,569	47,27
539,765	-46,93
539,961	71,85
540,157	90,28
540,353	-98,13
540,549	8,36
540,745	24,75
540,941	-59,22
541,137	-3,93
541,333	39,08
541,528	12,46
541,724	-36,69
541,92	-1,88
542,116	8,36
542,312	12,46
542,508	-59,22
542,704	4,27
542,9	-14,17
543,096	10,41
543,291	16,55
543,487	45,23
543,683	-18,26
543,879	96,43
544,075	4,27
544,27	32,94
544,466	-73,56
544,662	53,42
544,858	34,99
545,053	-3,93
545,249	49,32
545,445	39,08
545,64	-67,41
545,836	-22,36
546,032	4,27
546,227	-104,28
546,423	45,23
546,619	-48,98
546,814	-57,17
547,01	-20,31
547,205	-32,6
547,401	-94,04
547,597	43,18
547,792	-30,55
547,988	-24,4
548,183	8,36
548,379	18,6
548,574	16,55
548,77	20,65
548,965	65,71
549,161	18,6
549,356	6,31
549,552	-46,93
549,747	53,42
549,942	-8,02
550,138	-18,26
550,333	24,75
550,529	8,36
550,724	-8,02
550,919	73,9
551,115	-36,69
551,31	55,47
551,505	57,51
551,701	30,89
551,896	-36,69
552,091	34,99
552,287	49,32
552,482	6,31
552,677	-38,74
552,872	-71,51
553,067	18,6
553,263	-1,88
553,458	-18,26
553,653	-12,12
553,848	-28,5
554,043	-14,17
554,239	-22,36
554,434	-8,02
554,629	-51,03
554,824	53,42
555,019	2,22
555,214	-65,36
555,409	-10,07
555,604	77,99
555,799	0,17
555,994	-69,46
556,189	41,13
556,384	22,7
556,579	41,13
556,774	-73,56
556,969	-40,79
557,164	41,13
557,359	22,7
557,554	20,65
557,749	-26,45
557,944	-8,02
558,139	-44,88
558,334	-106,32
558,529	-61,27
558,724	-112,47
558,918	14,51
559,113	-24,4
559,308	67,75
559,503	-10,07
559,698	-28,5
559,893	-10,07
560,087	-12,12
560,282	-110,42
560,477	51,37
560,672	-42,84
560,866	39,08
561,061	-38,74
561,256	0,17
561,45	6,31
561,645	-51,03
561,84	-57,17
562,034	30,89
562,229	-34,64
562,424	-20,31
562,618	-10,07
562,813	-20,31
563,008	-30,55
563,202	-67,41
563,397	-44,88
563,591	12,46
563,786	-28,5
563,98	-1,88
564,175	-46,93
564,369	-3,93
564,564	30,89
564,758	26,79
564,953	-42,84
565,147	-48,98
565,342	-53,08
565,536	-3,93
565,731	-1,88
565,925	39,08
566,119	-28,5
566,314	43,18
566,508	12,46
566,703	16,55
566,897	-57,17
567,091	-42,84
567,286	24,75
567,48	32,94
567,674	88,23
567,868	-34,64
568,063	6,31
568,257	-16,21
568,451	4,27
568,646	4,27
568,84	16,55
569,034	-141,14
569,228	-36,69
569,422	55,47
569,616	20,65
569,811	-38,74
570,005	18,6
570,199	-10,07
570,393	-53,08
570,587	0,17
570,781	-42,84
570,975	16,55
571,169	-3,93
571,364	90,28
571,558	0,17
571,752	-12,12
571,946	-3,93
572,14	26,79
572,334	-10,07
572,528	-79,7
572,722	-44,88
572,916	-8,02
573,109	20,65
573,303	-55,12
573,497	-18,26
573,691	32,94
573,885	-26,45
574,079	-77,65
574,273	-94,04
574,467	-16,21
574,661	-44,88
574,854	-67,41
575,048	12,46
575,242	-34,64
575,436	-20,31
575,63	-20,31
575,823	63,66
576,017	-24,4
576,211	-46,93
576,405	-36,69
576,598	-89,94
576,792	45,23
576,986	6,31
577,18	-28,5
577,373	-10,07
577,567	-100,18
577,761	-42,84
577,954	22,7
578,148	28,84
578,341	-89,94
578,535	49,32
578,729	-8,02
578,922	-1,88
579,116	-83,8
579,309	-91,99
579,503	-55,12
579,696	0,17
579,89	-61,27
580,083	-40,79
580,277	-59,22
580,47	-48,98
580,664	37,03
580,857	-53,08
581,051	-16,21
581,244	-10,07
581,437	-1,88
581,631	-48,98
581,824	65,71
582,018	-24,4
582,211	-61,27
582,404	-18,26
582,598	-26,45
582,791	57,51
582,984	-3,93
583,178	39,08
583,371	-36,69
583,564	-8,02
583,757	-8,02
583,951	-12,12
584,144	-69,46
584,337	-34,64
584,53	16,55
584,723	18,6
584,917	-1,88
585,11	-5,97
585,303	-32,6
585,496	6,31
585,689	4,27
585,882	10,41
586,075	-73,56
586,268	-67,41
586,462	-94,04
586,655	-34,64
586,848	59,56
587,041	-61,27
587,234	-55,12
587,427	32,94
587,62	-98,13
587,813	-24,4
588,006	86,19
588,199	-59,22
588,392	24,75
588,585	-32,6
588,777	-1,88
588,97	-8,02
589,163	65,71
589,356	63,66
589,549	67,75
589,742	-40,79
589,935	-42,84
590,128	47,27
590,32	-16,21
590,513	-32,6
590,706	-1,88
590,899	-24,4
591,092	28,84
591,284	26,79
591,477	-26,45
591,67	-8,02
591,863	-46,93
592,055	-65,36
592,248	69,8
592,441	-26,45
592,633	30,89
592,826	-32,6
593,019	-3,93
593,211	28,84
593,404	-44,88
593,596	30,89
593,789	-77,65
593,982	61,61
594,174	-73,56
594,367	16,55
594,559	14,51
594,752	-100,18
594,944	14,51
595,137	-10,07
595,329	71,85
595,522	0,17
595,714	-51,03
595,907	0,17
596,099	-20,31
596,292	-34,64
596,484	-10,07
596,676	-10,07
596,869	-16,21
597,061	57,51
597,253	-20,31
597,446	-46,93
597,638	-65,36
597,83	-28,5
598,023	32,94
598,215	-106,32
598,407	-32,6
598,6	-75,6
598,792	-28,5
598,984	-3,93
599,176	-83,8
599,369	-20,31
599,561	53,42
599,753	-26,45
599,945	-28,5
600,137	-55,12
600,329	10,41
600,522	-32,6
600,714	-94,04
600,906	-61,27
601,098	14,51
601,29	-96,08
601,482	39,08
601,674	20,65
601,866	22,7
602,058	-38,74
602,25	-22,36
602,442	24,75
602,634	2,22
602,826	39,08
603,018	-10,07
603,21	12,46
603,402	-118,61
603,594	-48,98
603,786	8,36
603,978	16,55
604,17	-22,36
604,362	71,85
604,554	32,94
604,745	39,08
604,937	-16,21
605,129	53,42
605,321	-42,84
605,513	-24,4
605,704	14,51
605,896	8,36
606,088	-32,6
606,28	-59,22
606,471	39,08
606,663	-69,46
606,855	-73,56
607,047	-24,4
607,238	-14,17
607,43	-10,07
607,622	-8,02
607,813	49,32
608,005	-12,12
608,197	28,84
608,388	-73,56
608,58	-38,74
608,771	28,84
608,963	16,55
609,154	-69,46
609,346	-8,02
609,537	-5,97
609,729	-67,41
609,921	39,08
610,112	-22,36
610,303	0,17
610,495	-18,26
610,686	12,46
610,878	-85,84
611,069	-20,31
611,261	-28,5
611,452	-40,79
611,643	-149,33
611,835	6,31
612,026	14,51
612,217	-28,5
612,409	-36,69
612,6	-3,93
612,791	-26,45
612,983	-8,02
613,174	116,9
613,365	-10,07
613,557	12,46
613,748	8,36
613,939	18,6
614,13	-16,21
614,321	-3,93
614,513	32,94
614,704	-18,26
614,895	-42,84
615,086	-48,98
615,277	-83,8
615,468	-24,4
615,659	53,42
615,851	-73,56
616,042	16,55
616,233	32,94
616,424	-42,84
616,615	98,47
616,806	-34,64
616,997	-87,89
617,188	-94,04
617,379	-48,98
617,57	4,27
617,761	-30,55
617,952	90,28
618,143	55,47
618,334	-30,55
618,524	-40,79
618,715	-36,69
618,906	-16,21
619,097	-40,79
619,288	-12,12
619,479	-26,45
619,67	24,75
619,86	-48,98
620,051	30,89
620,242	2,22
620,433	-87,89
620,624	-32,6
620,814	-65,36
621,005	41,13
621,196	-85,84
621,386	-32,6
621,577	-22,36
621,768	0,17
621,958	-55,12
622,149	-38,74
622,34	-73,56
622,53	32,94
622,721	-36,69
622,912	86,19
623,102	-34,64
623,293	4,27
623,483	55,47
623,674	-10,07
623,864	6,31
624,055	-69,46
624,245	0,17
624,436	-48,98
624,626	-42,84
624,817	-32,6
625,007	-26,45
625,198	-57,17
625,388	-24,4
625,579	65,71
625,769	6,31
625,959	82,09
626,15	0,17
626,34	-3,93
626,531	63,66
626,721	49,32
626,911	-44,88
627,101	-14,17
627,292	8,36
627,482	-28,5
627,672	-65,36
627,863	-40,79
628,053	30,89
628,243	20,65
628,433	-116,56
628,623	-51,03
628,814	-55,12
629,004	-3,93
629,194	-104,28
629,384	-22,36
629,574	10,41
629,764	-51,03
629,955	-3,93
630,145	-28,5
630,335	-28,5
630,525	-10,07
630,715	10,41
630,905	-65,36
631,095	-46,93
631,285	-24,4
631,475	12,46
631,665	82,09
631,855	-12,12
632,045	-24,4
632,235	-8,02
632,425	-65,36
632,615	-12,12
632,805	37,03
632,994	-83,8
633,184	45,23
633,374	18,6
633,564	-28,5
633,754	34,99
633,944	-57,17
634,133	16,55
634,323	-12,12
634,513	-32,6
634,703	47,27
634,893	-16,21
635,082	28,84
635,272	-16,21
635,462	-28,5
635,651	-28,5
635,841	47,27
636,031	-14,17
636,221	-73,56
636,41	-32,6
636,6	-51,03
636,789	-42,84
636,979	-20,31
637,169	16,55
637,358	-65,36
637,548	-48,98
637,737	-26,45
637,927	-89,94
638,116	-12,12
638,306	6,31
638,495	-8,02
638,685	10,41
638,874	0,17
639,064	-1,88
639,253	12,46
639,443	28,84
639,632	-51,03
639,822	-91,99
640,011	-8,02
640,2	16,55
640,39	32,94
640,579	-26,45
640,768	8,36
640,958	26,79
641,147	-106,32
641,336	-81,75
641,526	12,46
641,715	-36,69
641,904	47,27
642,093	-22,36
642,283	-20,31
642,472	30,89
642,661	-132,95
642,85	-48,98
643,039	-40,79
643,228	51,37
643,418	-91,99
643,607	77,99
643,796	-44,88
643,985	-51,03
644,174	-24,4
644,363	0,17
644,552	-1,88
644,741	-48,98
644,93	-91,99
645,119	57,51
645,308	-34,64
645,497	-8,02
645,686	30,89
645,875	-32,6
646,064	-104,28
646,253	-75,6
646,442	55,47
646,631	-63,32
646,82	12,46
647,009	-28,5
647,198	-16,21
647,387	-83,8
647,575	-12,12
647,764	415,91
647,953	45,23
648,142	-1,88
648,331	20,65
648,519	24,75
648,708	26,79
648,897	-24,4
649,086	-44,88
649,274	-38,74
649,463	-73,56
649,652	73,9
649,84	16,55
650,029	39,08
650,218	-79,7
650,406	-79,7
650,595	-38,74
650,784	77,99
650,972	8,36
651,161	-48,98
651,349	-61,27
651,538	86,19
651,726	45,23
651,915	-12,12
652,104	-40,79
652,292	-61,27
652,481	-8,02
652,669	82,09
652,857	-20,31
653,046	-77,65
653,234	-51,03
653,423	-30,55
653,611	-51,03
653,8	-16,21
653,988	-28,5
654,176	-36,69
654,365	-18,26
654,553	32,94
654,741	0,17
654,93	-69,46
655,118	-1,88
655,306	0,17
655,494	-44,88
655,683	-61,27
655,871	-59,22
656,059	24,75
656,247	-53,08
656,436	14,51
656,624	0,17
656,812	16,55
657	-24,4
657,188	18,6
657,376	6,31
657,564	14,51
657,753	-32,6
657,941	12,46
658,129	-30,55
658,317	-3,93
658,505	-75,6
658,693	6,31
658,881	-55,12
659,069	-69,46
659,257	-32,6
659,445	-59,22
659,633	-3,93
659,821	-40,79
660,009	16,55
660,197	-3,93
660,384	-24,4
660,572	69,8
660,76	-32,6
660,948	14,51
661,136	-83,8
661,324	14,51
661,512	41,13
661,699	-77,65
661,887	41,13
662,075	43,18
662,263	-14,17
662,451	30,89
662,638	-10,07
662,826	-1,88
663,014	-8,02
663,201	8,36
663,389	16,55
663,577	-10,07
663,764	-46,93
663,952	-63,32
664,14	63,66
664,327	12,46
664,515	-34,64
664,702	-36,69
664,89	-10,07
665,078	-10,07
665,265	-32,6
665,453	-24,4
665,64	-65,36
665,828	6,31
666,015	20,65
666,203	-3,93
666,39	-32,6
666,578	12,46
666,765	-51,03
666,952	37,03
667,14	18,6
667,327	-67,41
667,515	-44,88
667,702	-18,26
667,889	-12,12
668,077	-67,41
668,264	63,66
668,451	0,17
668,638	-42,84
668,826	-57,17
669,013	-8,02
669,2	-20,31
669,388	37,03
669,575	47,27
669,762	-81,75
669,949	-3,93
670,136	620,71
670,323	20,65
670,511	20,65
670,698	-81,75
670,885	24,75
671,072	41,13
671,259	-104,28
671,446	47,27
671,633	0,17
671,82	-48,98
672,007	-112,47
672,194	-48,98
672,381	-34,64
672,568	0,17
672,755	16,55
672,942	-5,97
673,129	-24,4
673,316	10,41
673,503	-38,74
673,69	-26,45
673,877	0,17
674,064	10,41
674,251	34,99
674,437	-8,02
674,624	-55,12
674,811	75,95
674,998	-61,27
675,185	37,03
675,372	88,23
675,558	20,65
675,745	0,17
675,932	-14,17
676,119	-57,17
676,305	-61,27
676,492	-28,5
676,679	-63,32
676,865	-89,94
677,052	-40,79
677,239	-30,55
677,425	-30,55
677,612	-10,07
677,798	-12,12
677,985	10,41
678,172	28,84
678,358	-32,6
678,545	-32,6
678,731	-10,07
678,918	-48,98
679,104	-48,98
679,291	114,86
679,477	4,27
679,664	-55,12
679,85	-36,69
680,036	-1,88
680,223	-149,33
680,409	-48,98
680,596	-8,02
680,782	28,84
680,968	-34,64
681,155	-24,4
681,341	-51,03
681,527	6,31
681,714	-18,26
681,9	-65,36
682,086	49,32
682,272	-32,6
682,459	-44,88
682,645	18,6
682,831	24,75
683,017	82,09
683,204	71,85
683,39	-3,93
683,576	30,89
683,762	53,42
683,948	-63,32
684,134	-98,13
684,32	-18,26
684,506	18,6
684,693	61,61
684,879	-77,65
685,065	18,6
685,251	-63,32
685,437	-71,51
685,623	-34,64
685,809	90,28
685,995	-8,02
686,181	-3,93
686,366	-71,51
686,552	-53,08
686,738	-51,03
686,924	-42,84
687,11	-73,56
687,296	-24,4
687,482	-26,45
687,668	-57,17
687,853	-1,88
688,039	-3,93
688,225	-20,31
688,411	-65,36
688,597	53,42
688,782	-20,31
688,968	4,27
689,154	-38,74
689,34	4,27
689,525	57,51
689,711	-12,12
689,897	94,38
690,082	0,17
690,268	-20,31
690,454	-8,02
690,639	-18,26
690,825	34,99
691,01	-26,45
691,196	-26,45
691,381	-12,12
691,567	2,22
691,753	-57,17
691,938	0,17
692,124	-42,84
692,309	-30,55
692,494	-10,07
692,68	-30,55
692,865	-79,7
693,051	10,41
693,236	32,94
693,422	67,75
693,607	-53,08
693,792	4,27
693,978	-48,98
694,163	45,23
694,348	-51,03
694,534	0,17
694,719	10,41
694,904	-130,9
695,089	-18,26
695,275	-65,36
695,46	-59,22
695,645	22,7
695,83	-36,69
696,016	-91,99
696,201	-5,97
696,386	-22,36
696,571	-40,79
696,756	-34,64
696,941	8,36
697,126	-108,37
697,311	6,31
697,497	-59,22
697,682	-67,41
697,867	55,47
698,052	-1,88
698,237	0,17
698,422	-3,93
698,607	45,23
698,792	-42,84
698,977	0,17
699,162	57,51
699,347	61,61
699,531	-26,45
699,716	-83,8
699,901	-40,79
700,086	41,13
700,271	-112,47
700,456	102,57
700,641	30,89
700,825	-42,84
701,01	-12,12
701,195	10,41
701,38	-94,04
701,565	63,66
701,749	-87,89
701,934	-32,6
702,119	-46,93
702,303	-55,12
702,488	8,36
702,673	67,75
702,857	14,51
703,042	4,27
703,227	39,08
703,411	-53,08
703,596	51,37
703,78	14,51
703,965	-89,94
704,15	-46,93
704,334	-3,93
704,519	-81,75
704,703	-83,8
704,888	-18,26
705,072	-30,55
705,257	-24,4
705,441	-65,36
705,625	90,28
705,81	4,27
705,994	-28,5
706,179	-14,17
706,363	16,55
706,547	4,27
706,732	39,08
706,916	41,13
707,1	-89,94
707,285	-38,74
707,469	4,27
707,653	-3,93
707,837	-24,4
708,022	67,75
708,206	39,08
708,39	-36,69
708,574	-1,88
708,759	22,7
708,943	-32,6
709,127	47,27
709,311	22,7
709,495	-73,56
709,679	-57,17
709,863	0,17
710,047	-18,26
710,231	28,84
710,415	-65,36
710,6	53,42
710,784	-116,56
710,968	-32,6
711,152	-24,4
711,336	12,46
711,519	6,31
711,703	-87,89
711,887	41,13
712,071	-116,56
712,255	30,89
712,439	96,43
712,623	24,75
712,807	-51,03
712,991	10,41
713,174	-40,79
713,358	-34,64
713,542	-34,64
713,726	10,41
713,91	59,56
714,093	73,9
714,277	-69,46
714,461	55,47
714,645	-24,4
714,828	14,51
715,012	-55,12
715,196	-65,36
715,379	47,27
715,563	-20,31
715,747	-26,45
715,93	22,7
716,114	-65,36
716,297	-28,5
716,481	10,41
716,664	-32,6
716,848	-53,08
717,031	0,17
717,215	-20,31
717,398	10,41
717,582	4,27
717,765	37,03
717,949	-61,27
718,132	-81,75
718,316	-48,98
718,499	-20,31
718,682	32,94
718,866	-40,79
719,049	30,89
719,233	24,75
719,416	-20,31
719,599	26,79
719,782	32,94
719,966	-81,75
720,149	-48,98
720,332	-10,07
720,515	-89,94
720,699	-18,26
720,882	26,79
721,065	-1,88
721,248	24,75
721,431	8,36
721,615	-57,17
721,798	45,23
721,981	-67,41
722,164	-40,79
722,347	-61,27
722,53	57,51
722,713	-22,36
722,896	49,32
723,079	-51,03
723,262	55,47
723,445	16,55
723,628	-20,31
723,811	-28,5
723,994	0,17
724,177	6,31
724,36	-79,7
724,543	-24,4
724,726	-106,32
724,909	14,51
725,091	8,36
725,274	-81,75
725,457	-48,98
725,64	-61,27
725,823	-16,21
726,006	-34,64
726,188	8,36
726,371	98,47
726,554	-1,88
726,737	-12,12
726,919	0,17
727,102	-3,93
727,285	2,22
727,467	-59,22
727,65	-71,51
727,833	-36,69
728,015	-51,03
728,198	-53,08
728,38	-73,56
728,563	-98,13
728,746	-87,89
728,928	-8,02
729,111	-57,17
729,293	6,31
729,476	55,47
729,658	-36,69
729,841	-73,56
730,023	110,76
730,205	-46,93
730,388	0,17
730,57	41,13
730,753	12,46
730,935	123,05
731,117	14,51
731,3	-28,5
731,482	-59,22
731,664	41,13
731,847	-51,03
732,029	37,03
732,211	88,23
732,394	-79,7
732,576	-12,12
732,758	94,38
732,94	-67,41
733,122	8,36
733,305	55,47
733,487	10,41
733,669	-24,4
733,851	37,03
734,033	-24,4
734,215	-26,45
734,397	65,71
734,58	-36,69
734,762	4,27
734,944	-65,36
735,126	-73,56
735,308	32,94
735,49	-55,12
735,672	-59,22
735,854	-30,55
736,036	2,22
736,218	55,47
736,399	-8,02
736,581	-34,64
736,763	22,7
736,945	49,32
737,127	-59,22
737,309	90,28
737,491	47,27
737,672	4,27
737,854	10,41
738,036	-8,02
738,218	30,89
738,4	-46,93
738,581	-100,18
738,763	-34,64
738,945	14,51
739,127	-57,17
739,308	-36,69
739,49	-14,17
739,672	-16,21
739,853	-32,6
740,035	-51,03
740,216	14,51
740,398	0,17
740,58	-16,21
740,761	-81,75
740,943	-100,18
741,124	-44,88
741,306	41,13
741,487	-61,27
741,669	-42,84
741,85	-44,88
742,032	-40,79
742,213	-73,56
742,394	-18,26
742,576	-16,21
742,757	-1,88
742,939	39,08
743,12	-40,79
743,301	-36,69
743,483	-34,64
743,664	-81,75
743,845	-8,02
744,027	22,7
744,208	-14,17
744,389	-42,84
744,57	-10,07
744,752	43,18
744,933	-48,98
745,114	-63,32
745,295	-36,69
745,476	88,23
745,657	-8,02
745,839	-89,94
746,02	24,75
746,201	84,14
746,382	67,75
746,563	16,55
746,744	28,84
746,925	-102,23
747,106	22,7
747,287	24,75
747,468	4,27
747,649	77,99
747,83	-18,26
748,011	-16,21
748,192	16,55
748,373	-89,94
748,554	-120,66
748,735	12,46
748,915	-38,74
749,096	-81,75
749,277	24,75
749,458	10,41
749,639	-69,46
749,82	37,03
750	-26,45
750,181	-22,36
750,362	-36,69
750,543	41,13
750,723	4,27
750,904	37,03
751,085	-1,88
751,265	14,51
751,446	-79,7
751,627	-20,31
751,807	28,84
751,988	12,46
752,169	14,51
752,349	2,22
752,53	-42,84
752,71	-10,07
752,891	41,13
753,071	14,51
753,252	-89,94
753,432	-28,5
753,613	12,46
753,793	-3,93
753,974	41,13
754,154	-24,4
754,334	34,99
754,515	-48,98
754,695	-5,97
754,876	37,03
755,056	22,7
755,236	18,6
755,417	-28,5
755,597	75,95
755,777	-69,46
755,957	-10,07
756,138	-67,41
756,318	-26,45
756,498	22,7
756,678	-40,79
756,859	45,23
757,039	-59,22
757,219	14,51
757,399	-5,97
757,579	-44,88
757,759	-51,03
757,939	-122,71
758,119	-46,93
758,3	59,56
758,48	0,17
758,66	-36,69
758,84	-44,88
759,02	86,19
759,2	-112,47
759,38	-51,03
759,56	-1,88
759,74	4,27
759,919	-16,21
760,099	20,65
760,279	-20,31
760,459	47,27
760,639	-8,02
760,819	-73,56
760,999	-122,71
761,178	-51,03
761,358	32,94
761,538	-12,12
761,718	-61,27
761,898	-81,75
762,077	-26,45
762,257	-30,55
762,437	63,66
762,616	-40,79
762,796	-3,93
762,976	57,51
763,155	14,51
763,335	39,08
763,515	-32,6
763,694	-22,36
763,874	-85,84
764,053	-40,79
764,233	59,56
764,413	-42,84
764,592	-28,5
764,772	16,55
764,951	0,17
765,131	4,27
765,31	-28,5
765,489	-16,21
765,669	-16,21
765,848	6,31
766,028	-24,4
766,207	-126,8
766,386	-20,31
766,566	-65,36
766,745	12,46
766,924	32,94
767,104	24,75
767,283	-67,41
767,462	-5,97
767,642	8,36
767,821	-87,89
768	-42,84
768,179	-34,64
768,358	-24,4
768,538	-32,6
768,717	-16,21
768,896	30,89
769,075	24,75
769,254	-57,17
769,433	30,89
769,612	43,18
769,791	-96,08
769,97	-22,36
770,149	-59,22
770,328	-122,71
770,507	-40,79
770,686	0,17
770,865	-16,21
771,044	-55,12
771,223	-5,97
771,402	-40,79
771,581	-44,88
771,76	-48,98
771,939	24,75
772,118	-22,36
772,297	-40,79
772,475	-16,21
772,654	57,51
772,833	69,8
773,012	20,65
773,191	-28,5
773,369	-5,97
773,548	49,32
773,727	-120,66
773,906	22,7
774,084	-10,07
774,263	18,6
774,442	-3,93
774,62	-79,7
774,799	-65,36
774,977	43,18
775,156	8,36
775,335	-48,98
775,513	24,75
775,692	-85,84
775,87	123,05
776,049	14,51
776,227	-8,02
776,406	-40,79
776,584	-5,97
776,763	-5,97
776,941	-89,94
777,119	-98,13
777,298	-75,6
777,476	59,56
777,655	-26,45
777,833	-108,37
778,011	-8,02
778,19	12,46
778,368	-53,08
778,546	39,08
778,725	-26,45
778,903	-12,12
779,081	12,46
779,259	59,56
779,437	-26,45
779,616	-1,88
779,794	30,89
779,972	49,32
780,15	32,94
780,328	-30,55
780,506	16,55
780,685	-57,17
780,863	-44,88
781,041	-73,56
781,219	-18,26
781,397	41,13
781,575	-75,6
781,753	-44,88
781,931	-24,4
782,109	49,32
782,287	30,89
782,465	-34,64
782,643	6,31
782,82	-28,5
782,998	-71,51
783,176	39,08
783,354	-28,5
783,532	-32,6
783,71	-1,88
783,888	-20,31
784,065	16,55
784,243	-44,88
784,421	-59,22
784,599	-8,02
784,776	12,46
784,954	-89,94
785,132	16,55
785,31	8,36
785,487	-28,5
785,665	-24,4
785,842	-51,03
786,02	114,86
786,198	8,36
786,375	39,08
786,553	10,41
786,73	0,17
786,908	-32,6
787,085	-12,12
787,263	-89,94
787,44	8,36
787,618	18,6
787,795	-61,27
787,973	-151,38
788,15	6,31
788,328	63,66
788,505	43,18
788,682	-8,02
788,86	-18,26
789,037	-44,88
789,215	-30,55
789,392	-28,5
789,569	0,17
789,746	43,18
789,924	-32,6
790,101	-69,46
790,278	-12,12
790,455	-34,64
790,633	-34,64
790,81	71,85
790,987	-26,45
791,164	-51,03
791,341	-32,6
791,518	-44,88
791,695	-12,12
791,873	32,94
792,05	8,36
792,227	-34,64
792,404	-24,4
792,581	-36,69
792,758	-1,88
792,935	-83,8
793,112	24,75
793,289	-32,6
793,466	-46,93
793,643	-16,21
793,82	-63,32
793,996	-1,88
794,173	41,13
794,35	-110,42
794,527	92,33
794,704	49,32
794,881	22,7
795,057	-85,84
795,234	-53,08
795,411	24,75
795,588	-85,84
795,765	-26,45
795,941	-16,21
796,118	-14,17
796,295	14,51
796,471	37,03
796,648	-91,99
796,825	86,19
797,001	41,13
797,178	24,75
797,354	4,27
797,531	4,27
797,708	41,13
797,884	22,7
798,061	-48,98
798,237	-59,22
798,414	32,94
798,59	-24,4
798,767	41,13
798,943	-34,64
799,119	22,7
799,296	-5,97
799,472	-30,55
799,649	-100,18
799,825	-67,41
800,001	-34,64
800,178	-65,36
800,354	28,84
800,53	28,84
800,707	-42,84
800,883	-75,6
801,059	-18,26
801,235	45,23
801,411	-73,56
801,588	-137,04
801,764	73,9
801,94	-30,55
802,116	34,99
802,292	-34,64
802,468	-38,74
802,645	0,17
802,821	39,08
802,997	8,36
803,173	-61,27
803,349	-48,98
803,525	-10,07
803,701	0,17
803,877	22,7
804,053	-61,27
804,229	-40,79
804,405	41,13
804,581	-34,64
804,756	30,89
804,932	-102,23
805,108	30,89
805,284	-16,21
805,46	-8,02
805,636	-18,26
805,812	-79,7
805,987	20,65
806,163	-89,94
806,339	133,29
806,515	-104,28
806,69	-32,6
806,866	0,17
807,042	-32,6
807,217	8,36
807,393	-10,07
807,569	-67,41
807,744	65,71
807,92	121
808,096	-36,69
808,271	-57,17
808,447	0,17
808,622	-69,46
808,798	-57,17
808,973	-53,08
809,149	47,27
809,324	0,17
809,5	-98,13
809,675	-57,17
809,851	6,31
810,026	2,22
810,201	41,13
810,377	16,55
810,552	-79,7
810,728	-69,46
810,903	-16,21
811,078	2,22
811,253	-44,88
811,429	-63,32
811,604	-51,03
811,779	61,61
811,955	16,55
812,13	-36,69
812,305	24,75
812,48	-73,56
812,655	137,38
812,83	22,7
813,006	-79,7
813,181	-59,22
813,356	-89,94
813,531	-8,02
813,706	-22,36
813,881	-91,99
814,056	-24,4
814,231	-18,26
814,406	8,36
814,581	-77,65
814,756	22,7
814,931	-42,84
815,106	12,46
815,281	-44,88
815,456	65,71
815,631	-57,17
815,805	-53,08
815,98	-51,03
816,155	-1,88
816,33	-69,46
816,505	0,17
816,68	57,51
816,854	-89,94
817,029	-106,32
817,204	-81,75
817,379	-98,13
817,553	-46,93
817,728	4,27
817,903	-83,8
818,077	67,75
818,252	-28,5
818,427	32,94
818,601	0,17
818,776	-51,03
818,95	-24,4
819,125	-14,17
819,299	-3,93
819,474	12,46
819,648	-12,12
819,823	34,99
819,997	-28,5
820,172	-120,66
820,346	-10,07
820,521	-3,93
820,695	-77,65
820,87	-34,64
821,044	-24,4
821,218	8,36
821,393	57,51
821,567	-51,03
821,741	-5,97
821,916	-94,04
822,09	-20,31
822,264	37,03
822,438	-51,03
822,613	-91,99
822,787	-65,36
822,961	12,46
823,135	-57,17
823,309	-57,17
823,483	-53,08
823,658	-57,17
823,832	-34,64
824,006	-81,75
824,18	30,89
824,354	69,8
824,528	-26,45
824,702	24,75
824,876	-18,26
825,05	45,23
825,224	10,41
825,398	4,27
825,572	-59,22
825,746	-94,04
825,92	80,04
826,093	-46,93
826,267	4,27
826,441	22,7
826,615	-10,07
826,789	34,99
826,963	59,56
827,136	-16,21
827,31	-139,09
827,484	-42,84
827,658	-12,12
827,831	-48,98
828,005	-32,6
828,179	-100,18
828,353	55,47
828,526	-69,46
828,7	-36,69
828,873	-81,75
829,047	-65,36
829,221	69,8
829,394	-34,64
829,568	-114,52
829,741	-5,97
829,915	32,94
830,088	80,04
830,262	14,51
830,435	-96,08
830,609	-55,12
830,782	-48,98
830,956	-26,45
831,129	-42,84
831,302	-30,55
831,476	-32,6
831,649	-65,36
831,822	-10,07
831,996	30,89
832,169	0,17
832,342	-89,94
832,516	-10,07
832,689	-126,8
832,862	-24,4
833,035	47,27
833,209	-3,93
833,382	14,51
833,555	-87,89
833,728	-20,31
833,901	-91,99
834,074	8,36
834,247	-18,26
834,42	12,46
834,594	-42,84
834,767	4,27
834,94	10,41
835,113	63,66
835,286	-12,12
835,459	-32,6
835,632	-57,17
835,805	-57,17
835,977	-12,12
836,15	45,23
836,323	4,27
836,496	-36,69
836,669	-69,46
836,842	-32,6
837,015	14,51
837,188	30,89
837,36	37,03
837,533	37,03
837,706	-53,08
837,879	80,04
838,051	41,13
838,224	34,99
838,397	32,94
838,569	69,8
838,742	-65,36
838,915	-40,79
839,087	41,13
839,26	-26,45
839,433	-87,89
839,605	123,05
839,778	-139,09
839,95	8,36
840,123	-83,8
840,295	-3,93
840,468	-79,7
840,64	14,51
840,813	-5,97
840,985	-14,17
841,158	-32,6
841,33	-26,45
841,502	20,65
841,675	6,31
841,847	32,94
842,019	-57,17
842,192	6,31
842,364	-81,75
842,536	4,27
842,709	4,27
842,881	-18,26
843,053	-71,51
843,225	-34,64
843,398	-18,26
843,57	-10,07
843,742	-1,88
843,914	-32,6
844,086	77,99
844,258	-36,69
844,43	-24,4
844,602	51,37
844,775	-40,79
844,947	-5,97
845,119	-55,12
845,291	16,55
845,463	67,75
845,635	-59,22
845,807	-20,31
845,979	0,17
846,15	8,36
846,322	-40,79
846,494	-20,31
846,666	-40,79
846,838	37,03
847,01	0,17
847,182	-18,26
847,354	-10,07
847,525	-14,17
847,697	-16,21
847,869	-96,08
848,041	32,94
848,212	55,47
848,384	-10,07
848,556	4,27
848,727	45,23
848,899	-91,99
849,071	-20,31
849,242	32,94
849,414	6,31
849,585	0,17
849,757	12,46
849,929	30,89
850,1	-42,84
850,272	96,43
850,443	-8,02
850,615	20,65
850,786	-16,21
850,958	14,51
851,129	32,94
851,3	73,9
851,472	-14,17
851,643	-100,18
851,815	-8,02
851,986	-28,5
852,157	-16,21
852,329	32,94
852,5	-59,22
852,671	-3,93
852,842	57,51
853,014	-44,88
853,185	-8,02
853,356	-71,51
853,527	12,46
853,698	0,17
853,87	-10,07
854,041	141,48
854,212	-16,21
854,383	18,6
854,554	-53,08
854,725	98,47
854,896	-18,26
855,067	12,46
855,238	-59,22
855,409	30,89
855,58	16,55
855,751	61,61
855,922	0,17
856,093	188,58
856,264	-28,5
856,435	28,84
856,606	-24,4
856,777	0,17
856,948	32,94
857,118	-24,4
857,289	41,13
857,46	133,29
857,631	-36,69
857,802	-32,6
857,972	22,7
858,143	75,95
858,314	-32,6
858,484	-59,22
858,655	16,55
858,826	14,51
858,996	-53,08
859,167	-28,5
859,338	-14,17
859,508	-36,69
859,679	-12,12
859,849	-55,12
860,02	-53,08
860,19	-77,65
860,361	10,41
860,531	-32,6
860,702	151,72
860,872	59,56
861,043	-57,17
861,213	28,84
861,384	-16,21
861,554	-1,88
861,724	-57,17
861,895	-34,64
862,065	121
862,235	-3,93
862,406	8,36
862,576	-16,21
862,746	16,55
862,916	-22,36
863,087	49,32
863,257	-22,36
863,427	6,31
863,597	-36,69
863,767	14,51
863,937	-100,18
864,108	39,08
864,278	-1,88
864,448	37,03
864,618	90,28
864,788	-89,94
864,958	0,17
865,128	-10,07
865,298	-18,26
865,468	8,36
865,638	-16,21
865,808	-22,36
865,978	51,37
866,148	-59,22
866,318	-24,4
866,487	43,18
866,657	-42,84
866,827	8,36
866,997	37,03
867,167	49,32
867,337	-40,79
867,506	20,65
867,676	-8,02
867,846	-69,46
868,016	61,61
868,185	-83,8
868,355	-22,36
868,525	-36,69
868,694	-8,02
868,864	39,08
869,034	8,36
869,203	-5,97
869,373	12,46
869,542	80,04
869,712	-10,07
869,881	73,9
870,051	-8,02
870,22	-1,88
870,39	-3,93
870,559	43,18
870,729	-112,47
870,898	28,84
871,068	53,42
871,237	-16,21
871,406	-48,98
871,576	-53,08
871,745	-61,27
871,914	-53,08
872,084	-20,31
872,253	-114,52
872,422	6,31
872,591	-3,93
872,761	-94,04
872,93	270,5
873,099	-69,46
873,268	-102,23
873,437	-139,09
873,607	-38,74
873,776	0,17
873,945	-5,97
874,114	-24,4
874,283	12,46
874,452	-32,6
874,621	-67,41
874,79	-34,64
874,959	-57,17
875,128	-73,56
875,297	41,13
875,466	61,61
875,635	6,31
875,804	0,17
875,973	-65,36
876,142	-46,93
876,31	12,46
876,479	-14,17
876,648	4,27
876,817	-36,69
876,986	-32,6
877,155	16,55
877,323	-40,79
877,492	24,75
877,661	39,08
877,829	-51,03
877,998	14,51
878,167	49,32
878,335	-114,52
878,504	-73,56
878,673	-32,6
878,841	-83,8
879,01	10,41
879,178	-8,02
879,347	-24,4
879,515	-28,5
879,684	53,42
879,852	-147,28
880,021	-1,88
880,189	-59,22
880,358	-16,21
880,526	77,99
880,695	-81,75
880,863	45,23
881,031	-24,4
881,2	-55,12
881,368	-40,79
881,536	43,18
881,705	-51,03
881,873	8,36
882,041	71,85
882,21	-40,79
882,378	22,7
882,546	67,75
882,714	-12,12
882,882	-24,4
883,05	96,43
883,219	-30,55
883,387	-36,69
883,555	-114,52
883,723	-65,36
883,891	-57,17
884,059	-126,8
884,227	10,41
884,395	0,17
884,563	114,86
884,731	8,36
884,899	20,65
885,067	30,89
885,235	-91,99
885,403	8,36
885,571	-24,4
885,739	-61,27
