Data from USB4F035431__20__15-00-16-353.txt Node

Date: Wed Feb 12 15:00:16 CET 2025
User: Versuch 234
Spectrometer: USB4F03543
Trigger mode: 4
Integration Time (sec): 5,000000E-2
Scans to average: 5
Electric dark correction enabled: true
Nonlinearity correction enabled: false
Boxcar width: 0
XAxis mode: Wavelengths
Number of Pixels in Spectrum: 3648
>>>>>Begin Spectral Data<<<<<
179,969	-80,86
180,181	-80,86
180,394	-80,86
180,606	-97,24
180,819	-89,46
181,031	8,84
181,243	47,75
181,456	-26,38
181,668	29,73
181,88	-8,36
182,093	-30,07
182,305	-40,72
182,518	-8,36
182,73	35,87
182,942	-10,82
183,155	-12,46
183,367	14,98
183,579	-9,18
183,791	30,55
184,004	16,62
184,216	-3,86
184,428	21,13
184,641	18,67
184,853	-4,68
185,065	-6,31
185,277	23,59
185,49	50,21
185,702	-0,17
185,914	3,93
186,126	24
186,338	13,35
186,551	12,53
186,763	37,92
186,975	-8,36
187,187	30,14
187,399	9,66
187,612	54,31
187,824	-27,61
188,036	31,37
188,248	53,49
188,46	9,25
188,672	33,01
188,885	-16,55
189,097	60,04
189,309	-2,63
189,521	22,36
189,733	38,74
189,945	46,11
190,157	32,19
190,369	7,2
190,581	-1,4
190,794	33,42
191,006	11,3
191,218	-14,51
191,43	38,33
191,642	8,43
191,854	33,01
192,066	59,22
192,278	20,72
192,49	1,47
192,702	-5,5
192,914	37,1
193,126	30,14
193,338	-16,96
193,55	17,44
193,762	26,86
193,974	-13,69
194,186	-12,05
194,398	33,83
194,61	19,49
194,822	43,66
195,034	59,22
195,246	53,08
195,457	30,14
195,669	62,5
195,881	25,22
196,093	-12,46
196,305	14,57
196,517	-9,59
196,729	26,86
196,941	12,53
197,153	18,26
197,365	54,71
197,576	7,2
197,788	-24,34
198	15,39
198,212	64,95
198,424	33,83
198,636	6,38
198,847	-14,51
199,059	17,85
199,271	2,7
199,483	30,14
199,695	26,04
199,906	36,28
200,118	4,74
200,33	16,21
200,542	218,96
200,753	10,07
200,965	1,06
201,177	34,64
201,389	37,51
201,6	-7,13
201,812	55,94
202,024	5,56
202,235	35,87
202,447	50,62
202,659	53,08
202,871	16,62
203,082	-2,63
203,294	-10,82
203,506	39,56
203,717	24
203,929	27,68
204,141	-7,13
204,352	58,81
204,564	-14,1
204,775	-13,28
204,987	57,58
205,199	70,69
205,41	28,91
205,622	13,76
205,833	-6,31
206,045	28,91
206,257	-5,09
206,468	-21,47
206,68	-8,36
206,891	-18,19
207,103	20,72
207,314	-9,59
207,526	33,42
207,737	-15,74
207,949	9,66
208,16	19,49
208,372	28,09
208,583	37,51
208,795	2,29
209,006	24
209,218	5,56
209,429	2,29
209,641	12,53
209,852	11,71
210,064	8,84
210,275	8,43
210,487	25,22
210,698	30,55
210,909	33,42
211,121	32,19
211,332	35,46
211,544	6,38
211,755	65,36
211,966	21,95
212,178	20,72
212,389	102,23
212,6	25,63
212,812	106,32
213,023	24,4
213,234	26,45
213,446	5,56
213,657	-34,99
213,868	52,26
214,08	70,69
214,291	17,44
214,502	49,39
214,714	-10,82
214,925	18,67
215,136	-29,25
215,347	-7,95
215,559	-8,77
215,77	35,87
215,981	28,09
216,192	-28,02
216,404	6,79
216,615	40,79
216,826	45,29
217,037	-12,05
217,249	28,5
217,46	61,27
217,671	19,9
217,882	8,02
218,093	50,21
218,304	48,16
218,516	41,61
218,727	-3,86
218,938	21,95
219,149	78,88
219,36	16,62
219,571	36,69
219,782	19,9
219,993	46,93
220,205	-2,63
220,416	61,68
220,627	42,84
220,838	37,92
221,049	77,65
221,26	104,69
221,471	39,97
221,682	25,63
221,893	55,94
222,104	-11,23
222,315	-27,61
222,526	-12,87
222,737	35,05
222,948	0,24
223,159	33,01
223,37	26,45
223,581	-7,13
223,792	11,3
224,003	25,22
224,214	13,35
224,425	23,18
224,636	-44,82
224,847	49,8
225,058	19,08
225,269	20,72
225,48	-13,69
225,691	-13,28
225,902	34,24
226,112	19,49
226,323	5,56
226,534	42,43
226,745	16,21
226,956	0,24
227,167	2,7
227,378	28,5
227,589	1,06
227,799	86,25
228,01	57,58
228,221	-13,28
228,432	7,2
228,643	12,53
228,853	14,17
229,064	-10,82
229,275	12,12
229,486	-9,59
229,697	34,64
229,907	72,74
230,118	22,77
230,329	-5,5
230,54	5,56
230,75	36,28
230,961	53,49
231,172	-0,99
231,383	-18,6
231,593	3,93
231,804	-21,47
232,015	5,56
232,225	47,34
232,436	5,97
232,647	42,43
232,857	24,81
233,068	8,84
233,279	37,51
233,489	14,98
233,7	23,18
233,91	-10
234,121	10,89
234,332	14,98
234,542	27,27
234,753	13,76
234,964	22,36
235,174	30,96
235,385	64,55
235,595	10,48
235,806	69,05
236,016	10,07
236,227	5,15
236,437	10,07
236,648	15,8
236,858	2,7
237,069	-10,82
237,279	14,17
237,49	16,21
237,7	42,02
237,911	22,36
238,121	-10,82
238,332	-3,45
238,542	49,8
238,753	7,2
238,963	24,81
239,174	64,95
239,384	30,96
239,595	11,3
239,805	48,98
240,015	15,8
240,226	9,66
240,436	48,98
240,647	55,12
240,857	25,22
241,067	38,74
241,278	113,7
241,488	23,59
241,698	53,08
241,909	10,89
242,119	32,19
242,329	71,92
242,54	42,02
242,75	10,48
242,96	30,14
243,171	46,93
243,381	43,25
243,591	38,74
243,801	78,06
244,012	60,04
244,222	53,49
244,432	12,94
244,642	23,18
244,853	25,63
245,063	34,24
245,273	61,68
245,483	35,46
245,694	48,57
245,904	46,93
246,114	16,62
246,324	26,45
246,534	22,77
246,744	13,76
246,955	-9,59
247,165	94,04
247,375	64,14
247,585	14,17
247,795	39,15
248,005	66,59
248,215	64,95
248,425	66,59
248,636	116,97
248,846	11,71
249,056	12,94
249,266	16,21
249,476	53,08
249,686	43,66
249,896	27,68
250,106	60,45
250,316	32,6
250,526	120,25
250,736	35,87
250,946	107,96
251,156	47,34
251,366	38,74
251,576	67,82
251,786	85,43
251,996	67,41
252,206	23,59
252,416	44,48
252,626	5,15
252,836	44,88
253,046	59,63
253,256	97,31
253,466	44,88
253,676	48,57
253,885	62,91
254,095	49,8
254,305	84,62
254,515	57,99
254,725	30,55
254,935	46,93
255,145	67,82
255,355	55,53
255,564	36,28
255,774	33,83
255,984	69,05
256,194	41,61
256,404	24,81
256,614	66,18
256,823	77,24
257,033	28,91
257,243	51,03
257,453	27,27
257,662	30,55
257,872	64,55
258,082	18,67
258,292	-1,4
258,501	94,45
258,711	130,08
258,921	70,69
259,131	33,83
259,34	35,46
259,55	45,7
259,76	13,35
259,969	38,33
260,179	33,42
260,389	64,55
260,598	69,87
260,808	41,2
261,018	28,09
261,227	73,97
261,437	18,26
261,647	90,76
261,856	-5,09
262,066	45,29
262,275	111,65
262,485	16,62
262,694	47,34
262,904	-8,36
263,114	53,08
263,323	44,07
263,533	36,28
263,742	13,35
263,952	59,22
264,161	21,95
264,371	55,94
264,58	58,4
264,79	39,97
264,999	47,34
265,209	58,4
265,418	60,86
265,628	44,48
265,837	74,38
266,047	54,71
266,256	85,43
266,466	19,49
266,675	7,2
266,884	41,2
267,094	76,42
267,303	73,15
267,513	36,28
267,722	72,74
267,931	35,05
268,141	31,37
268,35	24,4
268,559	60,86
268,769	51,03
268,978	-4,27
269,187	42,02
269,397	29,73
269,606	2,7
269,815	28,09
270,025	19,9
270,234	64,14
270,443	3,93
270,653	55,53
270,862	53,49
271,071	25,63
271,28	36,69
271,49	42,02
271,699	-30,89
271,908	66,18
272,117	39,15
272,327	4,33
272,536	21,95
272,745	31,37
272,954	36,69
273,163	16,21
273,372	63,73
273,582	16,21
273,791	46,52
274	17,85
274,209	22,36
274,418	35,87
274,627	61,27
274,836	23,18
275,046	47,75
275,255	45,7
275,464	24,4
275,673	33,83
275,882	51,44
276,091	19,49
276,3	11,71
276,509	46,11
276,718	32,19
276,927	17,03
277,136	36,69
277,345	27,27
277,554	0,65
277,763	53,08
277,972	28,91
278,181	37,92
278,39	-0,17
278,599	38,33
278,808	-30,89
279,017	31,37
279,226	-18,19
279,435	28,91
279,644	3,93
279,853	36,69
280,062	96,49
280,271	31,37
280,48	42,02
280,688	-0,17
280,897	36,28
281,106	3,93
281,315	-14,51
281,524	42,43
281,733	-2,22
281,942	-8,36
282,151	34,64
282,359	53,08
282,568	12,94
282,777	20,31
282,986	30,96
283,195	33,83
283,403	40,79
283,612	30,96
283,821	9,25
284,03	42,84
284,238	50,62
284,447	57,99
284,656	38,33
284,865	70,69
285,073	28,91
285,282	35,46
285,491	11,3
285,699	-5,5
285,908	8,43
286,117	33,01
286,325	19,49
286,534	84,21
286,743	27,27
286,951	48,57
287,16	51,03
287,369	13,35
287,577	5,97
287,786	14,98
287,995	1,88
288,203	22,77
288,412	1,88
288,62	-3,04
288,829	20,31
289,037	4,74
289,246	38,74
289,455	48,16
289,663	48,57
289,872	53,49
290,08	14,57
290,289	53,08
290,497	10,89
290,706	34,64
290,914	-4,27
291,123	-8,77
291,331	19,49
291,54	54,71
291,748	75,19
291,957	22,36
292,165	-3,04
292,373	19,9
292,582	-15,74
292,79	54,71
292,999	14,57
293,207	51,85
293,415	8,84
293,624	-10
293,832	10,07
294,041	18,26
294,249	9,25
294,457	2,29
294,666	40,38
294,874	-2,22
295,082	49,8
295,291	5,15
295,499	23,59
295,707	35,87
295,915	39,97
296,124	60,86
296,332	33,01
296,54	10,07
296,749	64,95
296,957	48,16
297,165	21,13
297,373	16,21
297,581	10,07
297,79	5,56
297,998	-12,05
298,206	-2,63
298,414	2,7
298,622	30,55
298,831	57,58
299,039	34,24
299,247	39,56
299,455	35,87
299,663	31,37
299,871	9,25
300,08	23,59
300,288	-12,87
300,496	16,62
300,704	-16,96
300,912	3,93
301,12	19,08
301,328	29,32
301,536	51,44
301,744	-6,72
301,952	46,11
302,16	-3,86
302,368	4,33
302,576	29,73
302,784	49,8
302,992	-28,02
303,2	46,52
303,408	24,4
303,616	52,67
303,824	47,75
304,032	63,73
304,24	71,1
304,448	43,66
304,656	31,78
304,864	77,65
305,072	32,6
305,28	33,42
305,488	10,89
305,696	28,09
305,904	38,33
306,111	-4,27
306,319	6,79
306,527	35,87
306,735	30,55
306,943	17,85
307,151	34,24
307,359	7,2
307,566	57,17
307,774	46,93
307,982	21,54
308,19	-3,45
308,398	11,71
308,605	2,7
308,813	10,89
309,021	9,66
309,229	25,22
309,436	-14,51
309,644	25,63
309,852	29,32
310,06	102,64
310,267	18,26
310,475	33,01
310,683	46,93
310,89	17,44
311,098	66,18
311,306	3,52
311,513	37,51
311,721	4,74
311,929	28,5
312,136	26,45
312,344	-26,38
312,552	58,81
312,759	1,88
312,967	33,83
313,174	44,48
313,382	38,74
313,589	22,36
313,797	64,14
314,005	27,27
314,212	39,15
314,42	3,93
314,627	-27,2
314,835	11,71
315,042	22,77
315,25	-28,43
315,457	9,25
315,665	-3,45
315,872	31,78
316,08	19,08
316,287	-7,54
316,495	204,22
316,702	29,73
316,909	-1,4
317,117	40,79
317,324	21,54
317,532	74,38
317,739	20,31
317,946	17,03
318,154	-5,9
318,361	-4,27
318,569	46,93
318,776	42,84
318,983	18,67
319,191	-21,06
319,398	17,44
319,605	34,64
319,813	49,8
320,02	-5,5
320,227	46,93
320,434	59,22
320,642	21,54
320,849	-2,63
321,056	39,97
321,264	64,14
321,471	46,52
321,678	44,88
321,885	32,6
322,092	58,4
322,3	42,43
322,507	10,07
322,714	12,53
322,921	15,39
323,128	8,84
323,336	30,96
323,543	68,23
323,75	37,1
323,957	18,26
324,164	17,44
324,371	48,57
324,578	-5,09
324,786	53,49
324,993	21,54
325,2	54,71
325,407	-30,48
325,614	44,48
325,821	30,96
326,028	102,64
326,235	51,85
326,442	28,5
326,649	25,63
326,856	60,04
327,063	36,28
327,27	24,4
327,477	32,19
327,684	13,76
327,891	28,09
328,098	78,88
328,305	106,73
328,512	80,52
328,719	248,86
328,926	377,07
329,133	571,62
329,34	1011,12
329,546	1560,38
329,753	2040,83
329,96	2299,29
330,167	2257,51
330,374	2040,83
330,581	1426,85
330,788	767,82
330,995	466,77
331,201	271,8
331,408	185,78
331,615	59,63
331,822	47,75
332,029	49,39
332,235	63,73
332,442	10,48
332,649	31,78
332,856	8,84
333,062	64,95
333,269	13,76
333,476	39,56
333,683	6,79
333,889	52,26
334,096	21,95
334,303	64,95
334,509	20,72
334,716	57,99
334,923	51,44
335,129	8,02
335,336	57,17
335,543	28,91
335,749	34,24
335,956	81,34
336,163	34,24
336,369	25,63
336,576	33,01
336,782	51,85
336,989	5,97
337,196	27,27
337,402	28,09
337,609	24,81
337,815	21,13
338,022	25,63
338,228	71,51
338,435	103,46
338,641	60,04
338,848	97,72
339,054	64,55
339,261	-5,9
339,467	19,9
339,674	68,23
339,88	38,74
340,087	21,95
340,293	14,98
340,5	47,75
340,706	55,12
340,912	8,02
341,119	18,26
341,325	9,66
341,532	-3,45
341,738	3,93
341,944	34,24
342,151	15,8
342,357	33,01
342,563	42,84
342,77	18,26
342,976	40,38
343,182	82,57
343,389	42,43
343,595	45,29
343,801	14,98
344,007	55,12
344,214	15,39
344,42	16,21
344,626	44,48
344,832	8,02
345,039	38,33
345,245	30,14
345,451	15,8
345,657	51,44
345,864	24
346,07	35,87
346,276	35,46
346,482	89,12
346,688	43,66
346,894	55,12
347,1	38,74
347,307	37,1
347,513	66,18
347,719	40,38
347,925	63,73
348,131	3,52
348,337	76,01
348,543	-11,64
348,749	6,38
348,955	76,83
349,161	20,31
349,367	51,03
349,573	67,41
349,779	45,29
349,985	53,49
350,191	5,15
350,397	29,73
350,603	67,82
350,809	2,7
351,015	82,16
351,221	26,04
351,427	33,42
351,633	33,01
351,839	67,82
352,045	33,42
352,251	98,54
352,457	38,74
352,663	44,48
352,869	32,6
353,075	46,11
353,28	6,38
353,486	-0,17
353,692	37,1
353,898	38,33
354,104	18,26
354,31	59,63
354,515	42,43
354,721	64,55
354,927	81,75
355,133	80,93
355,339	87,89
355,544	63,32
355,75	78,06
355,956	63,32
356,162	76,42
356,367	27,27
356,573	80,11
356,779	37,92
356,984	67
357,19	89,12
357,396	47,34
357,602	68,64
357,807	30,14
358,013	71,1
358,218	84,21
358,424	10,48
358,63	48,98
358,835	51,03
359,041	52,26
359,247	61,68
359,452	52,67
359,658	35,46
359,863	89,53
360,069	71,51
360,274	75,19
360,48	98,13
360,685	80,93
360,891	61,68
361,097	29,73
361,302	18,26
361,508	96,49
361,713	58,4
361,918	106,32
362,124	36,28
362,329	80,52
362,535	58,4
362,74	58,81
362,946	75,6
363,151	64,14
363,357	71,51
363,562	32,6
363,767	-16,96
363,973	82,16
364,178	27,68
364,383	37,51
364,589	69,87
364,794	27,68
365	70,28
365,205	69,87
365,41	30,96
365,615	83,8
365,821	39,97
366,026	78,47
366,231	50,21
366,437	111,24
366,642	28,5
366,847	100,18
367,052	48,16
367,258	54,31
367,463	23,18
367,668	28,91
367,873	101,82
368,078	67,82
368,284	-8,36
368,489	48,57
368,694	58,4
368,899	57,58
369,104	85,02
369,309	42,43
369,515	40,38
369,72	68,64
369,925	10,07
370,13	63,73
370,335	68,23
370,54	20,31
370,745	37,1
370,95	40,79
371,155	109,6
371,36	55,12
371,565	53,9
371,77	77,24
371,975	36,28
372,18	87,48
372,385	89,12
372,59	57,58
372,795	33,42
373	96,08
373,205	69,05
373,41	68,23
373,615	53,49
373,82	11,3
374,025	82,57
374,23	5,56
374,435	45,29
374,64	77,65
374,845	62,91
375,05	54,31
375,254	71,1
375,459	56,35
375,664	57,17
375,869	20,31
376,074	8,84
376,279	22,36
376,483	69,05
376,688	48,16
376,893	82,57
377,098	49,8
377,303	62,5
377,507	60,45
377,712	114,52
377,917	49,39
378,122	77,24
378,326	49,8
378,531	43,66
378,736	-0,58
378,94	15,8
379,145	66,18
379,35	39,56
379,554	87,48
379,759	46,52
379,964	90,35
380,168	28,09
380,373	64,14
380,578	107,96
380,782	82,16
380,987	49,39
381,191	84,62
381,396	61,68
381,601	59,22
381,805	50,21
382,01	100,59
382,214	63,73
382,419	51,85
382,623	85,02
382,828	98,95
383,032	57,17
383,237	24,4
383,441	26,86
383,646	67
383,85	34,64
384,055	67
384,259	43,25
384,464	23,59
384,668	12,53
384,872	25,22
385,077	60,04
385,281	42,43
385,486	53,08
385,69	59,22
385,894	55,94
386,099	85,84
386,303	31,37
386,507	79,7
386,712	73,15
386,916	14,57
387,12	-0,58
387,325	58,4
387,529	58,4
387,733	85,43
387,937	49,8
388,142	2,7
388,346	15,39
388,55	83,39
388,754	53,08
388,959	39,15
389,163	31,78
389,367	47,34
389,571	59,22
389,775	62,5
389,98	55,94
390,184	60,86
390,388	73,97
390,592	58,81
390,796	36,69
391	38,74
391,204	83,8
391,409	23,59
391,613	57,58
391,817	68,64
392,021	100,18
392,225	66,59
392,429	36,69
392,633	34,64
392,837	38,33
393,041	42,43
393,245	51,44
393,449	21,95
393,653	73,15
393,857	85,02
394,061	105,5
394,265	67
394,469	108,37
394,673	57,58
394,877	91,17
395,081	71,51
395,285	88,71
395,489	46,52
395,693	94,04
395,896	39,97
396,1	68,23
396,304	73,15
396,508	34,24
396,712	55,12
396,916	32,6
397,12	82,98
397,323	65,77
397,527	90,76
397,731	65,77
397,935	69,05
398,139	37,1
398,342	76,42
398,546	55,12
398,75	47,75
398,954	94,45
399,157	59,63
399,361	49,39
399,565	25,63
399,769	92,81
399,972	48,98
400,176	43,66
400,38	49,39
400,583	33,42
400,787	80,52
400,991	43,66
401,194	112,06
401,398	65,77
401,601	60,04
401,805	78,88
402,009	38,74
402,212	64,14
402,416	111,65
402,619	46,11
402,823	126,39
403,026	64,55
403,23	51,44
403,433	169,4
403,637	101,82
403,841	130,08
404,044	130,49
404,247	57,17
404,451	82,16
404,654	114,93
404,858	87,48
405,061	72,33
405,265	17,85
405,468	25,63
405,672	48,98
405,875	82,16
406,078	44,48
406,282	46,93
406,485	33,83
406,689	90,35
406,892	89,53
407,095	38,74
407,299	76,83
407,502	71,51
407,705	56,76
407,909	84,21
408,112	105,91
408,315	67,41
408,518	116,15
408,722	55,12
408,925	84,62
409,128	102,64
409,331	94,04
409,535	121,48
409,738	73,56
409,941	97,72
410,144	38,74
410,347	119,84
410,551	70,28
410,754	68,64
410,957	73,15
411,16	45,7
411,363	73,97
411,566	105,91
411,769	64,14
411,973	48,98
412,176	99,77
412,379	123,94
412,582	105,91
412,785	61,27
412,988	40,38
413,191	63,32
413,394	105,5
413,597	42,84
413,8	77,24
414,003	130,9
414,206	100,59
414,409	153,43
414,612	203,4
414,815	249,27
415,018	283,68
415,221	259,51
415,424	281,22
415,627	217,32
415,83	200,94
416,033	146,46
416,235	109,19
416,438	106,32
416,641	145,64
416,844	74,38
417,047	71,1
417,25	104,28
417,453	150,15
417,655	110,83
417,858	179,64
418,061	155,07
418,264	176,36
418,467	232,48
418,669	262,79
418,872	299,24
419,075	338,97
419,278	319,31
419,48	355,77
419,683	248,45
419,886	184,97
420,089	131,31
420,291	134,18
420,494	47,34
420,697	62,5
420,899	111,24
421,102	71,1
421,305	93,22
421,507	77,24
421,71	80,11
421,912	86,25
422,115	71,51
422,318	101
422,52	101
422,723	58,81
422,925	97,72
423,128	118,61
423,33	57,17
423,533	88,71
423,735	84,21
423,938	45,29
424,14	76,01
424,343	171,45
424,545	150,56
424,748	168,17
424,95	137,45
425,153	156,29
425,355	164,08
425,558	194,8
425,76	200,94
425,962	215,28
426,165	201,76
426,367	152,61
426,57	165,31
426,772	136,22
426,974	122,71
427,177	88,3
427,379	85,84
427,581	162,44
427,784	81,75
427,986	72,33
428,188	88,3
428,39	96,49
428,593	112,06
428,795	137,04
428,997	180,05
429,2	131,31
429,402	170,63
429,604	97,72
429,806	95,26
430,008	145,64
430,211	90,76
430,413	56,35
430,615	114,52
430,817	99,77
431,019	81,34
431,221	134,18
431,423	69,46
431,626	80,52
431,828	86,25
432,03	129,26
432,232	155,88
432,434	165,31
432,636	133,36
432,838	129,26
433,04	141,55
433,242	149,33
433,444	108,37
433,646	126,39
433,848	100,18
434,05	95,67
434,252	67,82
434,454	80,52
434,656	67
434,858	71,1
435,06	36,69
435,262	100,59
435,464	77,24
435,666	116,56
435,868	92,4
436,07	98,95
436,271	50,21
436,473	41,61
436,675	104,69
436,877	82,98
437,079	100,59
437,281	60,04
437,482	39,15
437,684	83,39
437,886	85,84
438,088	85,02
438,29	70,28
438,491	73,56
438,693	28,5
438,895	91,99
439,097	80,93
439,298	75,19
439,5	79,29
439,702	66,59
439,903	86,66
440,105	73,97
440,307	121,48
440,508	107,96
440,71	70,69
440,912	106,73
441,113	81,75
441,315	92,81
441,517	78,06
441,718	88,3
441,92	70,69
442,121	117,38
442,323	76,83
442,524	55,53
442,726	101
442,928	62,09
443,129	66,59
443,331	64,95
443,532	70,69
443,734	52,67
443,935	91,99
444,136	54,31
444,338	67,82
444,539	109,19
444,741	89,53
444,942	114,52
445,144	88,3
445,345	112,06
445,546	62,5
445,748	103,46
445,949	54,71
446,151	56,76
446,352	33,01
446,553	164,9
446,755	68,64
446,956	92,4
447,157	81,34
447,359	74,38
447,56	78,06
447,761	94,04
447,962	111,24
448,164	92,81
448,365	105,09
448,566	121,89
448,767	102,64
448,969	171,04
449,17	105,5
449,371	100,18
449,572	115,33
449,773	109,19
449,974	162,03
450,176	146,87
450,377	104,28
450,578	120,25
450,779	82,16
450,98	76,01
451,181	98,13
451,382	85,43
451,583	104,28
451,784	114,93
451,986	51,85
452,187	119,84
452,388	105,91
452,589	83,8
452,79	90,76
452,991	91,17
453,192	155,47
453,393	135,4
453,594	218,55
453,795	235,35
453,995	334,88
454,196	441,37
454,397	487,66
454,598	430,31
454,799	389,35
455	348,39
455,201	225,11
455,402	204,22
455,603	150,56
455,804	122,71
456,004	110,83
456,205	95,67
456,406	98,54
456,607	101,41
456,808	148,51
457,008	87,48
457,209	80,11
457,41	117,38
457,611	109,6
457,811	236,16
458,012	110,42
458,213	112,88
458,414	123,94
458,614	115,74
458,815	80,11
459,016	182,1
459,216	162,85
459,417	113,29
459,618	114,52
459,818	97,72
460,019	106,73
460,22	101,82
460,42	107,55
460,621	75,19
460,821	78,47
461,022	130,08
461,223	99,36
461,423	77,65
461,624	120,25
461,824	97,31
462,025	86,66
462,225	81,34
462,426	131,31
462,626	83,8
462,827	77,65
463,027	127,21
463,228	85,43
463,428	97,31
463,628	91,17
463,829	132,13
464,029	77,24
464,23	67,82
464,43	117,38
464,63	98,95
464,831	106,73
465,031	201,35
465,231	203,4
465,432	233,3
465,632	312,35
465,832	216,5
466,033	244,36
466,233	178,82
466,433	202,17
466,634	145,24
466,834	188,65
467,034	109,6
467,234	106,32
467,435	110,83
467,635	96,49
467,835	115,33
468,035	91,17
468,235	78,06
468,436	109,19
468,636	105,91
468,836	74,78
469,036	156,29
469,236	131,31
469,436	115,33
469,636	142,37
469,836	96,9
470,037	113,7
470,237	137,86
470,437	148,51
470,637	151,38
470,837	97,31
471,037	143,6
471,237	96,9
471,437	130,49
471,637	95,67
471,837	102,64
472,037	93,22
472,237	89,12
472,437	80,93
472,637	153,43
472,837	132,95
473,036	114,11
473,236	195,21
473,436	143,19
473,636	144,01
473,836	150,15
474,036	168,58
474,236	156,29
474,436	116,97
474,635	164,49
474,835	133,77
475,035	158,75
475,235	107,96
475,435	128,44
475,634	103,46
475,834	149,74
476,034	130,08
476,234	128,85
476,433	110,42
476,633	169,81
476,833	101,41
477,033	105,91
477,232	106,73
477,432	109,6
477,632	177,59
477,831	123,94
478,031	125,98
478,231	134,59
478,43	149,33
478,63	125,57
478,829	97,31
479,029	131,72
479,229	115,33
479,428	71,51
479,628	110,83
479,827	152,61
480,027	74,38
480,226	181,28
480,426	111,24
480,625	140,32
480,825	135,81
481,024	107,14
481,224	151,79
481,423	105,5
481,623	137,86
481,822	121,89
482,021	120,25
482,221	158,34
482,42	148,51
482,62	163,67
482,819	109,19
483,018	134,59
483,218	106,73
483,417	145,64
483,616	133,77
483,816	175,95
484,015	159,57
484,214	118,61
484,414	155,88
484,613	230,84
484,812	103,87
485,011	110,01
485,211	177,59
485,41	182,1
485,609	126,39
485,808	134,18
486,008	114,93
486,207	143,6
486,406	171,04
486,605	178
486,804	189,06
487,003	168,58
487,203	198,89
487,402	169,4
487,601	153,84
487,8	195,21
487,999	163,26
488,198	196,43
488,397	157,52
488,596	133,36
488,795	101
488,994	168,99
489,193	146,87
489,392	177,18
489,591	129,26
489,79	151,38
489,989	151,79
490,188	169,4
490,387	159,98
490,586	155,88
490,785	170,63
490,984	180,46
491,183	212
491,382	301,7
491,581	391,81
491,779	564,25
491,978	615,45
492,177	680,57
492,376	674,02
492,575	636,75
492,774	479,87
492,972	408,6
493,171	313,58
493,37	260,33
493,569	261,15
493,768	249,68
493,966	182,51
494,165	200,94
494,364	198,07
494,563	202,17
494,761	202,58
494,96	194,39
495,159	163,67
495,357	168,58
495,556	242,31
495,755	383,62
495,953	577,77
496,152	849,33
496,35	1278,58
496,549	1727,91
496,748	2055,58
496,946	2228,02
497,145	2153,88
497,343	1913,45
497,542	1541,13
497,74	1201,17
497,939	907,49
498,137	668,7
498,336	456,12
498,534	398,36
498,733	290,64
498,931	277,53
499,13	187,42
499,328	229,61
499,527	223,47
499,725	154,66
499,924	160,39
500,122	136,22
500,32	186,19
500,519	137,86
500,717	157,52
500,915	132,54
501,114	161,21
501,312	145,64
501,51	144,42
501,709	160,8
501,907	135,4
502,105	124,35
502,304	150,56
502,502	197,25
502,7	182,92
502,898	189,88
503,097	189,88
503,295	163,26
503,493	151,38
503,691	188,24
503,889	167,35
504,088	150,97
504,286	193,98
504,484	187,42
504,682	175,95
504,88	162,85
505,078	178,41
505,276	186,19
505,474	230,43
505,672	144,83
505,871	206,26
506,069	206,67
506,267	161,21
506,465	187,42
506,663	140,73
506,861	148,1
507,059	184,15
507,257	181,69
507,455	178,82
507,653	157,93
507,851	178
508,049	116,56
508,246	198,48
508,444	193,16
508,642	170,63
508,84	174,73
509,038	173,5
509,236	222,65
509,434	125,17
509,632	189,88
509,829	164,9
510,027	180,46
510,225	191,93
510,423	174,73
510,621	174,32
510,818	193,98
511,016	135
511,214	182,92
511,412	214,46
511,609	173,09
511,807	184,97
512,005	156,29
512,203	199,3
512,4	188,24
512,598	203,4
512,796	230,02
512,993	319,72
513,191	441,78
513,389	525,34
513,586	707,61
513,784	747,75
513,981	823,93
514,179	744,47
514,377	667,88
514,574	582,27
514,772	508,14
514,969	445,88
515,167	343,07
515,364	305,8
515,562	247,63
515,759	288,59
515,957	209,13
516,154	214,05
516,352	243,95
516,549	204,22
516,746	168,17
516,944	244,77
517,141	237,8
517,339	216,5
517,536	253,37
517,733	209,54
517,931	181,69
518,128	217,73
518,325	192,75
518,523	180,05
518,72	181,69
518,917	248,86
519,115	190,29
519,312	173,09
519,509	186,19
519,707	184,56
519,904	171,04
520,101	233,3
520,298	255,01
520,495	239,03
520,693	202,99
520,89	258,28
521,087	207,08
521,284	296,78
521,481	214,05
521,678	223,88
521,876	226,33
522,073	223,88
522,27	204,63
522,467	211,59
522,664	194,39
522,861	192,75
523,058	235,76
523,255	189,06
523,452	242,72
523,649	221,42
523,846	180,05
524,043	189,88
524,24	201,76
524,437	209,13
524,634	205,45
524,831	202,58
525,028	216,09
525,225	158,75
525,422	184,56
525,619	182,51
525,816	177,18
526,013	243,13
526,209	226,74
526,406	145,24
526,603	234,94
526,8	151,38
526,997	207,49
527,194	205,04
527,39	215,69
527,587	197,25
527,784	163,26
527,981	201,35
528,177	212
528,374	211,18
528,571	223,47
528,768	197,25
528,964	196,02
529,161	213,64
529,358	239,44
529,554	180,05
529,751	197,25
529,948	165,71
530,144	177,18
530,341	179,23
530,537	207,08
530,734	197,25
530,931	200,94
531,127	226,33
531,324	224,7
531,52	203,4
531,717	222,65
531,913	190,29
532,11	208,31
532,306	180,46
532,503	154,25
532,699	186,6
532,896	236,16
533,092	236,16
533,289	173,5
533,485	622,82
533,682	232,48
533,878	243,95
534,074	216,09
534,271	203,81
534,467	311,94
534,664	186,19
534,86	198,89
535,056	188,65
535,253	248,86
535,449	211,59
535,645	227,97
535,841	205,04
536,038	237,39
536,234	209,13
536,43	257,05
536,626	222,24
536,823	256,64
537,019	192,75
537,215	233,3
537,411	264,43
537,607	244,77
537,804	215,28
538	226,33
538,196	248,04
538,392	182,92
538,588	282,04
538,784	219,37
538,98	182,92
539,176	221,83
539,373	224,7
539,569	241,49
539,765	186,6
539,961	239,85
540,157	248,45
540,353	210,36
540,549	280,4
540,745	279,58
540,941	223,47
541,137	281,63
541,333	235,35
541,528	228,79
541,724	257,46
541,92	223,88
542,116	205,45
542,312	225,52
542,508	219,37
542,704	228,38
542,9	252,96
543,096	244,36
543,291	308,66
543,487	271,8
543,683	256,64
543,879	307,43
544,075	268,52
544,27	239,85
544,466	235,76
544,662	289
544,858	269,75
545,053	265,25
545,249	254,6
545,445	268,11
545,64	262,38
545,836	251,32
546,032	235,35
546,227	234,94
546,423	267,7
546,619	218,14
546,814	201,76
547,01	245,18
547,205	261,15
547,401	289
547,597	319,72
547,792	311,53
547,988	359,86
548,183	350,44
548,379	353,72
548,574	338,15
548,77	316,85
548,965	314,4
549,161	271,8
549,356	313,17
549,552	326,69
549,747	309,48
549,942	310,71
550,138	289,82
550,333	270,16
550,529	304,98
550,724	281,22
550,919	333,65
551,115	266,07
551,31	340,2
551,505	327,09
551,701	362,73
551,896	374,61
552,091	379,11
552,287	390,17
552,482	379,93
552,677	332,83
552,872	324,23
553,067	356,18
553,263	369,28
553,458	338,15
553,653	392,63
553,848	412,29
554,043	404,92
554,239	419,25
554,434	400,82
554,629	425,81
554,824	442,6
555,019	415,98
555,214	373,79
555,409	401,23
555,604	417,21
555,799	395,91
555,994	372,15
556,189	376,25
556,384	380,34
556,579	391,81
556,774	386,9
556,969	386,9
557,164	400,41
557,359	402,46
557,554	431,13
557,749	399,18
557,944	478,23
558,139	426,63
558,334	493,39
558,529	475,78
558,724	467,99
558,918	500,35
559,113	530,66
559,308	556,47
559,503	540,49
559,698	490,52
559,893	523,29
560,087	513,05
560,282	504,04
560,477	603,98
560,672	556,06
560,866	553,6
561,061	564,66
561,256	578,59
561,45	603,98
561,645	598,25
561,84	623,64
562,034	628,97
562,229	634,7
562,424	643,71
562,618	672,38
562,813	689,59
563,008	688,36
563,202	762,49
563,397	774,37
563,591	849,33
563,786	855,88
563,98	786,66
564,175	924,28
564,369	940,67
564,564	995,96
564,758	1008,25
564,953	961,97
565,147	1046,75
565,342	1092,22
565,536	1216,73
565,731	1602,98
565,925	2664,24
566,119	4493,07
566,314	7664,15
566,508	11327,55
566,703	15891,66
566,897	20355,82
567,091	23368,38
567,286	23732,51
567,48	22881,78
567,674	20444,7
567,868	16707,57
568,063	12565,35
568,257	10130,72
568,451	8019,67
568,646	6258,42
568,84	4931,75
569,034	3818,47
569,228	3068,1
569,422	2630,65
569,616	2208,36
569,811	1929,84
570,005	1783,61
570,199	1693,91
570,393	1571,03
570,587	1478,05
570,781	1358,45
570,975	1327,32
571,169	1240,08
571,364	1226,56
571,558	1182,74
571,752	1186,83
571,946	1216,32
572,14	1174,13
572,334	1163,89
572,528	1177,41
572,722	1227,38
572,916	1216,73
573,109	1221,24
573,303	1188,06
573,497	1215,5
573,691	1238,44
573,885	1237,62
574,079	1220,83
574,273	1223,29
574,467	1275,71
574,661	1216,73
574,854	1260,15
575,048	1291,69
575,242	1275,71
575,436	1306,02
575,63	1363,78
575,823	1403,51
576,017	1367,87
576,211	1369,1
576,405	1443,65
576,598	1412,52
576,792	1443,65
576,986	1443,24
577,18	1489,52
577,373	1496,89
577,567	1539,9
577,761	1584,55
577,954	1567,75
578,148	1583,73
578,341	1655,82
578,535	1688,58
578,729	1707,02
578,922	1713,98
579,116	1738,15
579,309	1770,5
579,503	1849,15
579,696	1910,58
579,89	1981,85
580,083	1938,03
580,277	2075,65
580,47	2468,04
580,664	3143,87
580,857	3550,19
581,051	4075,7
581,244	4796,99
581,437	5317,99
581,631	5255,74
581,824	5314,72
582,018	5382,3
582,211	5175,46
582,404	4825,66
582,598	4671,66
582,791	4585,23
582,984	4332,1
583,178	4280,9
583,371	4228,88
583,564	4270,25
583,757	4406,24
583,951	4502,49
584,144	4683,12
584,337	4961,24
584,53	5346,67
584,723	5650,99
584,917	6320,68
585,11	6854,79
585,303	7873,86
585,496	8781,93
585,689	11088,35
585,882	62700,44
586,075	63012,96
586,268	64341,27
586,462	64415
586,655	64415
586,848	64415
587,041	64415
587,234	64415
587,427	64415
587,62	64415
587,813	64415
588,006	64415
588,199	64415
588,392	64415
588,585	64415
588,777	64415
588,97	64415
589,163	64415
589,356	64415
589,549	64415
589,742	64415
589,935	64415
590,128	64415
590,32	64415
590,513	64415
590,706	64415
590,899	64415
591,092	64415
591,284	64415
591,477	64415
591,67	64415
591,863	64415
592,055	64415
592,248	64415
592,441	64415
592,633	64415
592,826	64415
593,019	64415
593,211	64415
593,404	64415
593,596	64415
593,789	64415
593,982	64415
594,174	64415
594,367	64415
594,559	64415
594,752	64415
594,944	64415
595,137	64415
595,329	64415
595,522	64415
595,714	64415
595,907	64415
596,099	64415
596,292	64415
596,484	64415
596,676	64415
596,869	64415
597,061	64415
597,253	64415
597,446	64415
597,638	64415
597,83	64415
598,023	64415
598,215	64415
598,407	64415
598,6	64415
598,792	64415
598,984	64415
599,176	64415
599,369	64415
599,561	64415
599,753	64415
599,945	64415
600,137	64415
600,329	64415
600,522	64415
600,714	64415
600,906	64415
601,098	64415
601,29	64415
601,482	64415
601,674	64415
601,866	64415
602,058	64415
602,25	64415
602,442	64415
602,634	64415
602,826	64415
603,018	64415
603,21	64415
603,402	64415
603,594	64415
603,786	64415
603,978	64415
604,17	64415
604,362	64415
604,554	64415
604,745	64415
604,937	64415
605,129	64415
605,321	64415
605,513	64415
605,704	64415
605,896	64415
606,088	64415
606,28	64415
606,471	64415
606,663	64415
606,855	64415
607,047	64415
607,238	64415
607,43	64415
607,622	64415
607,813	64415
608,005	64415
608,197	64415
608,388	64415
608,58	64415
608,771	64415
608,963	64415
609,154	64415
609,346	64415
609,537	64415
609,729	64415
609,921	64415
610,112	64415
610,303	64415
610,495	64415
610,686	64415
610,878	64415
611,069	64415
611,261	64415
611,452	64415
611,643	64415
611,835	64415
612,026	64415
612,217	64415
612,409	64415
612,6	64415
612,791	64415
612,983	64415
613,174	64415
613,365	64415
613,557	64415
613,748	64415
613,939	64415
614,13	64415
614,321	64415
614,513	64415
614,704	64415
614,895	64415
615,086	64415
615,277	64415
615,468	64415
615,659	64415
615,851	64415
616,042	64415
616,233	64415
616,424	64415
616,615	64415
616,806	64415
616,997	64415
617,188	64415
617,379	64415
617,57	64415
617,761	64415
617,952	64415
618,143	64415
618,334	64415
618,524	64415
618,715	64415
618,906	64415
619,097	64415
619,288	64415
619,479	64415
619,67	64415
619,86	64415
620,051	64415
620,242	64415
620,433	64415
620,624	64415
620,814	64415
621,005	64415
621,196	64415
621,386	64415
621,577	64415
621,768	64415
621,958	64415
622,149	64415
622,34	64415
622,53	64415
622,721	54021,15
622,912	64415
623,102	19332,65
623,293	35984,69
623,483	705,15
623,674	701,05
623,864	694,5
624,055	653,54
624,245	689,99
624,436	646,17
624,626	665,42
624,817	698,19
625,007	660,09
625,198	628,97
625,388	636,75
625,579	649,04
625,769	683,03
625,959	633,06
626,15	606,03
626,34	601,93
626,531	682,21
626,721	658,87
626,911	599,88
627,101	603,57
627,292	656,82
627,482	606,44
627,672	619,54
627,863	580,22
628,053	693,68
628,243	588,01
628,433	589,23
628,623	590,46
628,814	592,1
629,004	597,02
629,194	591,28
629,384	609,71
629,574	578,99
629,764	608,08
629,955	557,7
630,145	608,49
630,335	567,94
630,525	567,53
630,715	593,33
630,905	566,3
631,095	563,84
631,285	522,88
631,475	572,85
631,665	601,11
631,855	547,05
632,045	540,08
632,235	540,9
632,425	553,6
632,615	577,36
632,805	559,74
632,994	545
633,184	529,84
633,374	579,4
633,564	525,34
633,754	551,14
633,944	556,47
634,133	488,88
634,323	558,11
634,513	502,81
634,703	553,6
634,893	492,16
635,082	520,01
635,272	495,85
635,462	529,84
635,651	559,33
635,841	517,97
636,031	491,34
636,221	472,91
636,41	516,74
636,6	475,37
636,789	528,61
636,979	484,79
637,169	506,91
637,358	479,46
637,548	496,26
637,737	489,7
637,927	476,19
638,116	476,19
638,306	487,25
638,495	504,86
638,685	498,3
638,874	473,32
639,064	467,59
639,253	457,35
639,443	497,08
639,632	492,57
639,822	516,74
640,011	549,09
640,2	573,26
640,39	549,91
640,579	514,28
640,768	476,6
640,958	514,28
641,147	452,84
641,336	421,3
641,526	420,07
641,715	420,07
641,904	484,38
642,093	415,16
642,283	445,88
642,472	447,11
642,661	418,84
642,85	443,01
643,039	410,24
643,228	486,43
643,418	410,65
643,607	428,26
643,796	454,07
643,985	407,38
644,174	407,38
644,363	428,26
644,552	420,89
644,741	410,24
644,93	355,77
645,119	413,93
645,308	418,43
645,497	413,93
645,686	409,83
645,875	396,73
646,064	382,39
646,253	375,02
646,442	407,78
646,631	408,19
646,82	398,36
647,009	359,04
647,198	391,4
647,387	404,1
647,575	431,13
647,764	710,47
647,953	469,22
648,142	470,04
648,331	483,15
648,519	452,84
648,708	422,53
648,897	409,01
649,086	429,9
649,274	385,67
649,463	369,28
649,652	409,83
649,84	385,67
650,029	396,32
650,218	376,25
650,406	393,86
650,595	366,42
650,784	406,56
650,972	365,19
651,161	357
651,349	329,96
651,538	364,78
651,726	380,75
651,915	341,84
652,104	368,87
652,292	346,76
652,481	371,74
652,669	366,42
652,857	324,64
653,046	352,9
653,234	331,19
653,423	361,91
653,611	307,84
653,8	319,72
653,988	315,22
654,176	335,29
654,365	295,15
654,553	384,44
654,741	387,71
654,93	329,55
655,118	328,32
655,306	344,71
655,494	280,4
655,683	304,57
655,871	322,18
656,059	299,24
656,247	279,17
656,436	273,85
656,624	313,99
656,812	295,97
657	293,92
657,188	320,54
657,376	257,46
657,564	330,78
657,753	286,54
657,941	278,76
658,129	276,31
658,317	323
658,505	271,39
658,693	279,58
658,881	277,12
659,069	302,11
659,257	288,59
659,445	307,02
659,633	309,89
659,821	283,27
660,009	277,94
660,197	284,09
660,384	242,72
660,572	336,52
660,76	266,88
660,948	306,21
661,136	261,15
661,324	241,9
661,512	283,27
661,699	264,02
661,887	312,35
662,075	305,39
662,263	248,86
662,451	266,88
662,638	262,79
662,826	264,84
663,014	270,57
663,201	247,63
663,389	261,56
663,577	265,25
663,764	219,78
663,952	245,18
664,14	282,04
664,327	267,29
664,515	289,41
664,702	279,58
664,89	247,63
665,078	246,4
665,265	247,63
665,453	312,76
665,64	248,45
665,828	296,78
666,015	309,07
666,203	353,31
666,39	359,45
666,578	313,17
666,765	280,81
666,952	292,69
667,14	283,27
667,327	232,07
667,515	232,89
667,702	274,26
667,889	234,94
668,077	209,13
668,264	287,77
668,451	274,67
668,638	234,12
668,826	226,74
669,013	219,78
669,2	220,19
669,388	239,85
669,575	257,46
669,762	166,12
669,949	211,59
670,136	590,87
670,323	222,65
670,511	225,11
670,698	227,15
670,885	191,11
671,072	240,67
671,259	213,23
671,446	222,24
671,633	171,86
671,82	156,7
672,007	149,33
672,194	167,35
672,381	169,4
672,568	215,69
672,755	209,54
672,942	262,38
673,129	270,98
673,316	317,67
673,503	340,2
673,69	337,74
673,877	338,15
674,064	346,35
674,251	271,8
674,437	261,97
674,624	241,9
674,811	213,64
674,998	190,7
675,185	209,95
675,372	234,53
675,558	216,5
675,745	212,41
675,932	210,36
676,119	156,7
676,305	157,52
676,492	178,41
676,679	188,65
676,865	184,56
677,052	173,91
677,239	142,78
677,425	173,09
677,612	187,83
677,798	171,04
677,985	184,97
678,172	171,86
678,358	172,27
678,545	127,21
678,731	145,64
678,918	151,38
679,104	141,55
679,291	298,01
679,477	130,9
679,664	173,09
679,85	126,39
680,036	178,41
680,223	95,26
680,409	171,45
680,596	157,11
680,782	158,75
680,968	132,95
681,155	151,38
681,341	163,26
681,527	137,45
681,714	147,28
681,9	144,83
682,086	166,53
682,272	103,87
682,459	129,26
682,645	184,15
682,831	128,44
683,017	189,88
683,204	173,5
683,39	140,32
683,576	172,68
683,762	139,5
683,948	125,17
684,134	114,93
684,32	125,17
684,506	145,64
684,693	180,46
684,879	165,71
685,065	193,16
685,251	195,62
685,437	241,49
685,623	264,02
685,809	255,42
685,995	216,5
686,181	229,2
686,366	175,95
686,552	185,38
686,738	148,51
686,924	165,31
687,11	141,96
687,296	146,87
687,482	166,53
687,668	146,46
687,853	87,07
688,039	120,25
688,225	133,36
688,411	125,57
688,597	133,36
688,782	148,1
688,968	121,89
689,154	129,67
689,34	171,45
689,525	126,8
689,711	166,53
689,897	151,79
690,082	120,25
690,268	127,21
690,454	105,91
690,639	126,8
690,825	140,32
691,01	153,02
691,196	115,74
691,381	136,63
691,567	86,25
691,753	176,77
691,938	169,4
692,124	153,84
692,309	139,91
692,494	171,45
692,68	165,71
692,865	128,44
693,051	157,52
693,236	182,92
693,422	173,91
693,607	177,18
693,792	438,09
693,978	1243,36
694,163	3017,31
694,348	5347,89
694,534	7423,31
694,719	9171,04
694,904	9924,29
695,089	9870,63
695,275	8273,62
695,46	6364,1
695,645	5220,1
695,83	4253,46
696,016	3385,12
696,201	2609,35
696,386	2126,03
696,571	1605,03
696,756	1240,9
696,941	1027,09
697,126	784,2
697,311	635,52
697,497	546,23
697,682	458,16
697,867	444,24
698,052	348,39
698,237	319,31
698,422	216,91
698,607	207,49
698,792	173,91
698,977	155,47
699,162	179,23
699,347	159,57
699,531	129,26
699,716	120,25
699,901	98,54
700,086	155,88
700,271	86,25
700,456	171,86
700,641	167,35
700,825	155,47
701,01	200,53
701,195	224,29
701,38	215,69
701,565	223,88
701,749	183,33
701,934	172,27
702,119	209,13
702,303	156,29
702,488	142,37
702,673	163,67
702,857	141,14
703,042	114,93
703,227	137,45
703,411	83,39
703,596	148,51
703,78	157,11
703,965	291,05
704,15	833,76
704,334	1961,37
704,519	3442,06
704,703	4754,8
704,888	5779,2
705,072	6364,51
705,257	6208,86
705,441	5323,32
705,625	4176,87
705,81	3329,42
705,994	2672,02
706,179	2199,76
706,363	1743,06
706,547	1383,44
706,732	1156,93
706,916	862,84
707,1	667,06
707,285	600,7
707,469	436,05
707,653	357
707,837	332,83
708,022	263,61
708,206	278,76
708,39	187,01
708,574	202,99
708,759	172,27
708,943	161,62
709,127	160,8
709,311	105,5
709,495	77,24
709,679	120,25
709,863	112,06
710,047	96,08
710,231	139,09
710,415	74,78
710,6	93,22
710,784	72,74
710,968	99,77
711,152	106,32
711,336	90,76
711,519	121,89
711,703	61,27
711,887	126,39
712,071	161,62
712,255	227,97
712,439	465,95
712,623	571,21
712,807	685,9
712,991	746,52
713,174	755,53
713,358	705,56
713,542	556,88
713,726	480,28
713,91	448,33
714,093	420,48
714,277	320,54
714,461	242,72
714,645	206,26
714,828	189,88
715,012	155,47
715,196	137,45
715,379	143,6
715,563	139,09
715,747	145,24
715,93	112,47
716,114	105,5
716,297	75,6
716,481	100,18
716,664	132,95
716,848	92,4
717,031	127,21
717,215	93,63
717,398	117,38
717,582	105,5
717,765	147,28
717,949	50,21
718,132	89,94
718,316	65,77
718,499	78,06
718,682	148,1
718,866	105,5
719,049	136,22
719,233	117,38
719,416	140,73
719,599	155,47
719,782	99,77
719,966	69,46
720,149	97,31
720,332	116,97
720,515	89,53
720,699	106,32
720,882	94,86
721,065	93,22
721,248	87,89
721,431	122,71
721,615	44,07
721,798	93,22
721,981	125,17
722,164	67
722,347	112,06
722,53	122,71
722,713	64,14
722,896	78,47
723,079	95,26
723,262	117,38
723,445	137,04
723,628	79,29
723,811	76,42
723,994	78,88
724,177	115,74
724,36	104,28
724,543	167,76
724,726	325,05
724,909	813,69
725,091	1325,68
725,274	1746,75
725,457	2034,28
725,64	2266,11
725,823	2209,59
726,006	1847,92
726,188	1455,53
726,371	1312,58
726,554	1016,44
726,737	819,84
726,919	659,68
727,102	579,4
727,285	432,36
727,467	346,76
727,65	291,87
727,833	230,84
728,015	184,15
728,198	133,36
728,38	154,66
728,563	79,29
728,746	89,12
728,928	91,99
729,111	83,39
729,293	120,66
729,476	121,89
729,658	98,54
729,841	128,85
730,023	145,64
730,205	105,91
730,388	85,02
730,57	115,33
730,753	127,62
730,935	128,85
731,117	166,12
731,3	75,6
731,482	53,49
731,664	59,22
731,847	103,87
732,029	113,7
732,211	110,83
732,394	65,77
732,576	55,53
732,758	128,85
732,94	105,5
733,122	116,97
733,305	132,54
733,487	151,38
733,669	182,1
733,851	130,49
734,033	153,84
734,215	123,53
734,397	141,14
734,58	147,69
734,762	162,44
734,944	206,67
735,126	203,81
735,308	283,68
735,49	314,81
735,672	665,83
735,854	1748,79
736,036	3886,05
736,218	6358,77
736,399	8396,5
736,581	10057,4
736,763	11056,81
736,945	10493,62
737,127	8640,62
737,309	6785,16
737,491	5715,3
737,672	4629,88
737,854	3774,65
738,036	2952,59
738,218	2266,52
738,4	1720,94
738,581	1313,4
738,763	882,91
738,945	646,17
739,127	458,16
739,308	336,52
739,49	259,1
739,672	225,93
739,853	161,21
740,035	137,04
740,216	149,74
740,398	136,22
740,58	123,12
740,761	107,55
740,943	132,54
741,124	110,01
741,306	105,09
741,487	120,25
741,669	140,32
741,85	122,71
742,032	136,63
742,213	107,96
742,394	98,13
742,576	119,84
742,757	100,59
742,939	107,55
743,12	106,32
743,301	105,5
743,483	76,83
743,664	75,19
743,845	99,36
744,027	108,78
744,208	88,3
744,389	90,76
744,57	103,87
744,752	129,67
744,933	129,67
745,114	112,06
745,295	121,48
745,476	113,7
745,657	117,38
745,839	98,95
746,02	161,62
746,201	164,08
746,382	128,03
746,563	153,84
746,744	125,98
746,925	112,06
747,106	110,42
747,287	137,86
747,468	245,18
747,649	513,46
747,83	1331,83
748,011	2954,64
748,192	5067,32
748,373	6645,08
748,554	7929,15
748,735	9046,53
748,915	9857,11
749,096	10384,26
749,277	11174,78
749,458	12147,15
749,639	12721,4
749,82	12873,36
750	11596,66
750,181	9359,05
750,362	7270,53
750,543	5858,25
750,723	4707,7
750,904	3643,58
751,085	2737,14
751,265	1933,11
751,446	1384,67
751,627	905,85
751,807	635,52
751,988	433,18
752,169	331,19
752,349	252,96
752,53	194,8
752,71	171,45
752,891	189,47
753,071	127,21
753,252	137,04
753,432	119,43
753,613	146,05
753,793	142,37
753,974	129,26
754,154	123,94
754,334	128,03
754,515	95,26
754,695	118,61
754,876	138,27
755,056	175,14
755,236	123,94
755,417	110,01
755,597	153,02
755,777	67
755,957	115,74
756,138	99,36
756,318	112,88
756,498	144,83
756,678	100,59
756,859	110,83
757,039	118,61
757,219	182,1
757,399	122,3
757,579	136,22
757,759	127,21
757,939	112,88
758,119	139,5
758,3	182,1
758,48	132,95
758,66	145,24
758,84	94,86
759,02	172,27
759,2	108,37
759,38	144,01
759,56	179,64
759,74	150,97
759,919	160,8
760,099	193,16
760,279	226,33
760,459	347,16
760,639	878
760,819	2917,37
760,999	8611,13
761,178	19023,41
761,358	30122,58
761,538	39193,04
761,718	45584,34
761,898	48696,02
762,077	46169,65
762,257	37306,04
762,437	29611,82
762,616	25040,34
762,796	19078,71
762,976	14377,39
763,155	9876,36
763,335	6402,6
763,515	4159,25
763,694	2894,43
763,874	3023,45
764,053	4896,11
764,233	7854,2
764,413	10553,01
764,592	12626,38
764,772	14334,79
764,951	14367,15
765,131	12407,65
765,31	9690,82
765,489	7936,12
765,669	6321,09
765,848	4716,71
766,028	3274,94
766,207	2172,72
766,386	1478,87
766,566	926,33
766,745	676,07
766,924	506,91
767,104	587,6
767,283	1070,51
767,462	2461,49
767,642	4211,68
767,821	5678,03
768	6965,38
768,179	7902,94
768,358	8108,97
768,538	7003,88
768,717	5413,02
768,896	4338,66
769,075	3496,12
769,254	2478,28
769,433	1894,61
769,612	1640,25
769,791	2409,47
769,97	4944,85
770,149	8525,52
770,328	11922,28
770,507	14492,08
770,686	16490,89
770,865	17108,15
771,044	14969,25
771,223	11610,58
771,402	9211,18
771,581	7203,76
771,76	5169,31
771,939	3635,38
772,118	2337,79
772,297	1552,19
772,475	1000,88
772,654	699,42
772,833	474,14
773,012	352,08
773,191	297,6
773,369	231,66
773,548	225,52
773,727	150,56
773,906	190,7
774,084	137,45
774,263	117,38
774,442	107,96
774,62	134,59
774,799	104,28
774,977	128,44
775,156	121,07
775,335	86,66
775,513	89,53
775,692	105,5
775,87	153,02
776,049	51,85
776,227	105,5
776,406	98,13
776,584	76,42
776,763	83,39
776,941	69,87
777,119	70,69
777,298	67,41
777,476	114,52
777,655	97,31
777,833	106,73
778,011	108,37
778,19	145,24
778,368	136,63
778,546	161,62
778,725	144,42
778,903	114,93
779,081	121,48
779,259	87,07
779,437	107,14
779,616	69,46
779,794	89,12
779,972	112,47
780,15	105,5
780,328	89,53
780,506	64,55
780,685	48,98
780,863	35,87
781,041	82,98
781,219	51,44
781,397	89,94
781,575	89,94
781,753	38,74
781,931	43,66
782,109	97,72
782,287	62,91
782,465	76,83
782,643	90,76
782,82	48,16
782,998	70,28
783,176	87,07
783,354	58,81
783,532	93,22
783,71	72,74
783,888	67,82
784,065	72,74
784,243	88,71
784,421	38,33
784,599	107,14
784,776	85,02
784,954	65,36
785,132	81,34
785,31	53,9
785,487	78,88
785,665	87,07
785,842	78,88
786,02	116,97
786,198	45,7
786,375	69,46
786,553	76,83
786,73	51,03
786,908	64,55
787,085	90,76
787,263	61,68
787,44	123,53
787,618	105,91
787,795	89,94
787,973	69,87
788,15	116,15
788,328	89,53
788,505	104,69
788,682	88,71
788,86	86,25
789,037	100,59
789,215	94,86
789,392	76,01
789,569	119,43
789,746	68,64
789,924	80,52
790,101	94,86
790,278	91,58
790,455	65,77
790,633	80,52
790,81	80,52
790,987	79,29
791,164	89,53
791,341	65,36
791,518	58,4
791,695	124,76
791,873	167,35
792,05	421,3
792,227	1136,04
792,404	2685,95
792,581	4820,75
792,758	6748,71
792,935	7954,14
793,112	8694,69
793,289	8469
793,466	6894,52
793,643	4707,7
793,82	3387,58
793,996	2553,24
794,173	1913,04
794,35	1393,68
794,527	1061,91
794,704	740,37
794,881	530,25
795,057	352,9
795,234	264,84
795,411	249,68
795,588	216,91
795,765	178
795,941	150,56
796,118	148,51
796,295	181,69
796,471	107,55
796,648	98,54
796,825	127,62
797,001	161,62
797,178	159,16
797,354	180,05
797,531	129,67
797,708	209,13
797,884	414,34
798,061	927,97
798,237	1914,68
798,414	3203,67
798,59	4234,62
798,767	5228,29
798,943	6610,26
799,119	8198,67
799,296	9257,47
799,472	9705,15
799,649	10187,65
799,825	10052,08
800,001	9001,88
800,178	6670,88
800,354	4634,79
800,53	3415,43
800,707	2561,84
800,883	1922,05
801,059	1455,12
801,235	1104,09
801,411	771,09
801,588	556,88
801,764	493,39
801,94	286,54
802,116	228,79
802,292	201,35
802,468	209,95
802,645	190,7
802,821	182,92
802,997	159,98
803,173	130,08
803,349	123,53
803,525	121,48
803,701	153,84
803,877	125,57
804,053	125,17
804,229	116,56
804,405	156,29
804,581	126,39
804,756	167,76
804,932	125,57
805,108	125,98
805,284	164,08
805,46	152,2
805,636	180,05
805,812	137,04
805,987	139,5
806,163	150,15
806,339	231,25
806,515	147,28
806,69	142,78
806,866	184,56
807,042	207,08
807,217	198,48
807,393	289,41
807,569	564,66
807,744	1575,95
807,92	3512,1
808,096	6016,35
808,271	8120,03
808,447	9717,85
808,622	10747,98
808,798	11849,79
808,973	13667,97
809,149	17581,64
809,324	22600,39
809,5	26911,78
809,675	29282,1
809,851	29784,67
810,026	26834,36
810,201	20710,94
810,377	14276,63
810,552	10505,91
810,728	8259,29
810,903	6292,01
811,078	5013,26
811,253	3742,7
811,429	2749,43
811,604	1923,69
811,779	1356,81
811,955	984,49
812,13	728,91
812,305	592,92
812,48	434
812,655	383,21
812,83	348,39
813,006	299,24
813,181	321,36
813,356	259,1
813,531	278,76
813,706	312,76
813,881	303,75
814,056	299,65
814,231	325,87
814,406	273,44
814,581	316,04
814,756	337,74
814,931	346,76
815,106	408,19
815,281	566,3
815,456	1222,88
815,631	3529,3
815,805	8826,17
815,98	16415,12
816,155	23251,24
816,33	28353,55
816,505	31938,31
816,68	33881,83
816,854	35942,09
817,029	39409,71
817,204	45978,37
817,379	51835,97
817,553	55733,25
817,728	57133,65
817,903	54810,44
818,077	45277,55
818,252	32397,47
818,427	23430,23
818,601	18271,4
818,776	14328,65
818,95	11179,28
819,125	8607,44
819,299	6436,6
819,474	4708,93
819,648	3311,8
819,823	2316,49
819,997	1632,88
820,172	1146,69
820,346	914,86
820,521	653,54
820,695	536,4
820,87	479,87
821,044	405,33
821,218	348,39
821,393	356,18
821,567	246,4
821,741	266,88
821,916	195,21
822,09	206,26
822,264	257,05
822,438	130,9
822,613	194,39
822,787	192,34
822,961	214,87
823,135	211,59
823,309	198,07
823,483	226,74
823,658	508,54
823,832	1028,32
824,006	1958,92
824,18	3079,16
824,354	3892,2
824,528	4533,21
824,702	4831,81
824,876	4600,39
825,05	3912,27
825,224	3002,97
825,398	2264,06
825,572	1845,46
825,746	1543,59
825,92	1273,26
826,093	998,83
826,267	818,61
826,441	588,83
826,615	459,39
826,789	349,62
826,963	261,97
827,136	187,83
827,31	162,44
827,484	132,95
827,658	130,9
827,831	112,88
828,005	89,12
828,179	81,34
828,353	114,52
828,526	110,01
828,7	109,6
828,873	48,98
829,047	83,8
829,221	91,99
829,394	76,01
829,568	72,74
829,741	86,66
829,915	74,78
830,088	116,56
830,262	129,67
830,435	43,25
830,609	102,23
830,782	87,07
830,956	92,4
831,129	107,55
831,302	77,65
831,476	92,81
831,649	32,6
831,822	73,56
831,996	115,74
832,169	118,2
832,342	41,2
832,516	97,72
832,689	73,97
832,862	86,66
833,035	79,29
833,209	125,57
833,382	66,18
833,555	73,56
833,728	24
833,901	61,68
834,074	98,95
834,247	82,16
834,42	82,98
834,594	56,76
834,767	106,73
834,94	71,51
835,113	83,8
835,286	46,93
835,459	103,05
835,632	91,17
835,805	71,1
835,977	80,93
836,15	132,13
836,323	99,77
836,496	118,2
836,669	69,05
836,842	89,12
837,015	138,68
837,188	115,33
837,36	146,05
837,533	159,16
837,706	179,23
837,879	334,88
838,051	638,8
838,224	1299,47
838,397	2333,69
838,569	3521,11
838,742	4520,93
838,915	5152,93
839,087	5503,13
839,26	5413,02
839,433	4832,63
839,605	4304,25
839,778	3933,16
839,95	4599,98
840,123	5635,84
840,295	6754,85
840,468	7589,6
840,64	7976,26
840,813	8105,69
840,985	7469,59
841,158	6203,95
841,33	4816,65
841,502	3825,43
841,675	3264,29
841,847	2632,7
842,019	2123,16
842,192	1718,89
842,364	1335,92
842,536	980,81
842,709	728,09
842,881	485,2
843,053	323,82
843,225	250,5
843,398	261,15
843,57	183,74
843,742	128,44
843,914	143,19
844,086	134,59
844,258	86,25
844,43	101,41
844,602	147,28
844,775	75,6
844,947	111,65
845,119	97,72
845,291	123,12
845,463	102,64
845,635	61,27
845,807	44,07
845,979	98,13
846,15	45,7
846,322	83,39
846,494	73,97
846,666	80,11
846,838	67,82
847,01	80,52
847,182	89,53
847,354	85,43
847,525	70,28
847,697	40,38
847,869	43,25
848,041	69,05
848,212	78,88
848,384	10,48
848,556	74,78
848,727	70,69
848,899	60,86
849,071	132,54
849,242	190,29
849,414	277,12
849,585	443,83
849,757	728,91
849,929	1078,7
850,1	1379,75
850,272	1684,49
850,443	1735,28
850,615	1783,2
850,786	1610,76
850,958	1395,32
851,129	1161,44
851,3	1005,79
851,472	853,42
851,643	718,26
851,815	553,19
851,986	489,7
852,157	384,44
852,329	339,79
852,5	193,16
852,671	178
852,842	157,52
853,014	92,4
853,185	103,05
853,356	60,45
853,527	67,82
853,698	96,49
853,87	74,38
854,041	137,45
854,212	27,68
854,383	62,09
854,554	64,55
854,725	113,29
854,896	89,94
855,067	61,27
855,238	39,15
855,409	74,78
855,58	59,63
855,751	89,53
855,922	74,38
856,093	167,76
856,264	28,5
856,435	73,97
856,606	85,84
856,777	86,66
856,948	82,57
857,118	33,83
857,289	78,47
857,46	112,88
857,631	57,99
857,802	71,1
857,972	53,9
858,143	99,36
858,314	23,18
858,484	32,6
858,655	54,31
858,826	84,62
858,996	45,7
859,167	116,15
859,338	57,99
859,508	60,86
859,679	42,84
859,849	24
860,02	89,12
860,19	37,1
860,361	103,05
860,531	36,69
860,702	128,44
860,872	93,22
861,043	58,4
861,213	72,74
861,384	30,55
861,554	46,11
861,724	-12,46
861,895	65,77
862,065	76,01
862,235	87,48
862,406	59,63
862,576	28,91
862,746	46,52
862,916	69,87
863,087	105,91
863,257	43,25
863,427	28,09
863,597	78,47
863,767	72,33
863,937	30,55
864,108	131,72
864,278	96,08
864,448	118,61
864,618	196,84
864,788	192,34
864,958	327,91
865,128	270,57
865,298	313,17
865,468	307,02
865,638	246,81
865,808	293,1
865,978	295,15
866,148	161,62
866,318	156,29
866,487	210,77
866,657	117,79
866,827	121,89
866,997	100,18
867,167	95,67
867,337	82,57
867,506	60,04
867,676	44,07
867,846	30,14
868,016	68,64
868,185	-28,84
868,355	56,76
868,525	80,11
868,694	42,43
868,864	69,46
869,034	28,91
869,203	25,22
869,373	31,78
869,542	83,8
869,712	33,83
869,881	57,99
870,051	41,2
870,22	46,52
870,39	36,28
870,559	46,93
870,729	26,04
870,898	62,5
871,068	60,45
871,237	29,73
871,406	21,95
871,576	35,05
871,745	79,29
871,914	11,71
872,084	8,84
872,253	60,86
872,422	43,25
872,591	75,6
872,761	14,98
872,93	284,91
873,099	83,8
873,268	49,39
873,437	41,2
873,607	-4,68
873,776	41,2
873,945	29,32
874,114	31,78
874,283	42,84
874,452	43,66
874,621	22,77
874,79	53,49
874,959	55,53
875,128	53,08
875,297	35,87
875,466	84,62
875,635	62,5
875,804	34,64
875,973	44,88
876,142	80,52
876,31	30,96
876,479	73,15
876,648	42,84
876,817	30,14
876,986	57,17
877,155	75,19
877,323	51,85
877,492	57,17
877,661	100,18
877,829	49,8
877,998	27,27
878,167	105,09
878,335	12,12
878,504	20,72
878,673	57,58
878,841	35,05
879,01	30,96
879,178	49,39
879,347	17,44
879,515	27,27
879,684	68,23
879,852	24,4
880,021	24
880,189	49,39
880,358	28,91
880,526	128,03
880,695	-8,77
880,863	70,28
881,031	21,95
881,2	37,51
881,368	6,79
881,536	72,74
881,705	40,38
881,873	67,41
882,041	37,92
882,21	81,75
882,378	73,56
882,546	23,18
882,714	25,22
882,882	21,13
883,05	63,32
883,219	5,97
883,387	53,9
883,555	46,52
883,723	-6,72
883,891	21,13
884,059	5,15
884,227	79,7
884,395	53,9
884,563	91,17
884,731	60,86
884,899	67,82
885,067	49,8
885,235	14,17
885,403	57,58
885,571	43,25
885,739	8,84
