Data from USB4F035431__19__14-56-33-402.txt Node

Date: Wed Feb 12 14:56:33 CET 2025
User: Versuch 234
Spectrometer: USB4F03543
Trigger mode: 4
Integration Time (sec): 1,000000E-2
Scans to average: 5
Electric dark correction enabled: true
Nonlinearity correction enabled: false
Boxcar width: 0
XAxis mode: Wavelengths
Number of Pixels in Spectrum: 3648
>>>>>Begin Spectral Data<<<<<
179,969	-15,02
180,181	-15,02
180,394	-15,02
180,606	-7,24
180,819	-38,37
181,031	-31,81
181,243	-3,96
181,456	9,97
181,668	-2,32
181,88	18,57
182,093	0,96
182,305	-2,73
182,518	-8,87
182,73	-1,5
182,942	25,12
183,155	-17,89
183,367	14,47
183,579	2,18
183,791	14,47
184,004	-4,37
184,216	3,41
184,428	-3,55
184,641	3,41
184,853	-4,37
185,065	23,48
185,277	-21,57
185,49	18,16
185,702	7,1
185,914	-1,5
186,126	-12,97
186,338	4,64
186,551	3
186,763	9,97
186,975	-10,92
187,187	28,81
187,399	-18,3
187,612	1,77
187,824	-13,38
188,036	-9,28
188,248	-1,5
188,46	14,47
188,672	-12,56
188,885	37,82
189,097	-0,68
189,309	-4,78
189,521	-11,33
189,733	12,42
189,945	-11,74
190,157	-15,84
190,369	4,64
190,581	-30,99
190,794	-6,83
191,006	-33,45
191,218	0,96
191,43	23,07
191,642	-19,11
191,854	19,39
192,066	1,77
192,278	21,44
192,49	-17,07
192,702	5,87
192,914	-11,74
193,126	30,86
193,338	-3,96
193,55	13,24
193,762	1,77
193,974	-6,42
194,186	7,1
194,398	1,77
194,61	27,17
194,822	-5,19
195,034	-8,46
195,246	-4,37
195,457	-9,28
195,669	-17,48
195,881	15,29
196,093	-26,08
196,305	-2,73
196,517	15,7
196,729	-12,15
196,941	-3,96
197,153	-9,28
197,365	-11,33
197,576	-1,91
197,788	-6,83
198	20,21
198,212	22,25
198,424	-8,06
198,636	-18,3
198,847	-6,42
199,059	3
199,271	5,05
199,483	7,92
199,695	-21,16
199,906	16,93
200,118	3,82
200,33	16,11
200,542	57,89
200,753	-7,65
200,965	-8,46
201,177	-6,01
201,389	8,33
201,6	9,15
201,812	-9,28
202,024	23,48
202,235	2,59
202,447	17,75
202,659	32,49
202,871	-20,34
203,082	5,46
203,294	10,79
203,506	9,56
203,717	12,83
203,929	-11,74
204,141	18,98
204,352	-1,5
204,564	9,97
204,775	3,82
204,987	34,13
205,199	-2,32
205,41	35,36
205,622	1,77
205,833	9,15
206,045	10,79
206,257	32,9
206,468	10,38
206,68	10,38
206,891	-22,39
207,103	-20,34
207,314	16,11
207,526	-8,46
207,737	5,87
207,949	-5,6
208,16	7,1
208,372	27,99
208,583	9,56
208,795	12,42
209,006	-8,87
209,218	14,06
209,429	20,62
209,641	12,01
209,852	-19,93
210,064	7,1
210,275	-18,3
210,487	0,96
210,698	2,59
210,909	39,87
211,121	-23,62
211,332	30,86
211,544	26,76
211,755	22,25
211,966	-15,84
212,178	-7,65
212,389	18,57
212,6	-2,32
212,812	23,48
213,023	38,64
213,234	-12,97
213,446	5,05
213,657	-14,61
213,868	7,1
214,08	25,94
214,291	14,47
214,502	-9,28
214,714	18,16
214,925	5,05
215,136	8,33
215,347	-5,6
215,559	-0,27
215,77	-20,34
215,981	9,56
216,192	-10,92
216,404	16,11
216,615	4,64
216,826	0,14
217,037	-13,38
217,249	28,81
217,46	22,25
217,671	-23,62
217,882	0,14
218,093	0,96
218,304	-3,14
218,516	29,63
218,727	-12,97
218,938	19,39
219,149	4,64
219,36	-21,57
219,571	-4,37
219,782	9,15
219,993	-13,38
220,205	-11,74
220,416	-18,7
220,627	12,83
220,838	-10,51
221,049	30,86
221,26	-3,14
221,471	17,34
221,682	27,17
221,893	11,2
222,104	-4,78
222,315	-14,61
222,526	-25,67
222,737	-2,73
222,948	-2,73
223,159	25,12
223,37	9,15
223,581	-5,19
223,792	11,61
224,003	12,01
224,214	13,24
224,425	18,57
224,636	-22,8
224,847	-22,8
225,058	16,11
225,269	24,71
225,48	23,48
225,691	-15,84
225,902	8,33
226,112	-19,52
226,323	3,41
226,534	19,8
226,745	-30,17
226,956	16,11
227,167	-16,66
227,378	5,05
227,589	-19,52
227,799	-10,1
228,01	7,51
228,221	-0,68
228,432	-8,06
228,643	-6,83
228,853	17,75
229,064	-22,8
229,275	14,88
229,486	21,85
229,697	-10,51
229,907	8,33
230,118	-6,42
230,329	-9,28
230,54	-12,97
230,75	-1,09
230,961	0,96
231,172	-2,73
231,383	-3,55
231,593	-24,85
231,804	-8,46
232,015	-2,32
232,225	2,59
232,436	-4,37
232,647	42,32
232,857	-10,1
233,068	5,46
233,279	0,96
233,489	5,05
233,7	-29,35
233,91	-21,16
234,121	-18,7
234,332	0,14
234,542	-1,5
234,753	4,64
234,964	22,25
235,174	-8,87
235,385	9,56
235,595	-7,65
235,806	23,48
236,016	-8,06
236,227	-25,26
236,437	-6,01
236,648	24,3
236,858	-13,79
237,069	-18,7
237,279	6,28
237,49	-16,25
237,7	7,51
237,911	27,17
238,121	13,65
238,332	0,14
238,542	-8,87
238,753	4,23
238,963	-5,6
239,174	33,31
239,384	-1,09
239,595	5,05
239,805	-0,68
240,015	-8,46
240,226	8,33
240,436	2,18
240,647	-0,27
240,857	-6,42
241,067	-12,97
241,278	45,19
241,488	-13,38
241,698	-3,96
241,909	20,21
242,119	-14,61
242,329	7,92
242,54	3
242,75	21,44
242,96	-3,55
243,171	1,37
243,381	10,38
243,591	31,27
243,801	17,34
244,012	6,28
244,222	2,18
244,432	7,92
244,642	-8,46
244,853	7,92
245,063	23,89
245,273	11,61
245,483	11,61
245,694	0,14
245,904	4,23
246,114	3
246,324	1,77
246,534	22,66
246,744	3,41
246,955	0,96
247,165	34,13
247,375	-3,55
247,585	9,15
247,795	-5,6
248,005	3
248,215	7,92
248,425	2,18
248,636	7,51
248,846	-20,75
249,056	11,61
249,266	-2,32
249,476	-28,54
249,686	43,96
249,896	-6,83
250,106	-10,1
250,316	-10,92
250,526	17,34
250,736	22,66
250,946	39,05
251,156	0,96
251,366	6,28
251,576	-12,97
251,786	1,77
251,996	-15,43
252,206	46,42
252,416	37,82
252,626	4,23
252,836	23,89
253,046	-6,83
253,256	11,2
253,466	1,37
253,676	5,46
253,885	-14,61
254,095	3,82
254,305	7,51
254,515	-24,44
254,725	10,38
254,935	-3,14
255,145	-6,01
255,355	13,24
255,564	-3,96
255,774	-9,69
255,984	29,22
256,194	15,7
256,404	24,71
256,614	3,41
256,823	28,4
257,033	14,47
257,243	25,12
257,453	4,23
257,662	-5,19
257,872	5,87
258,082	-2,32
258,292	-19,93
258,501	27,99
258,711	16,93
258,921	10,79
259,131	-19,93
259,34	14,06
259,55	7,1
259,76	-12,56
259,969	23,07
260,179	-39,59
260,389	23,89
260,598	10,38
260,808	19,8
261,018	16,52
261,227	5,87
261,437	-30,99
261,647	0,96
261,856	18,16
262,066	9,97
262,275	18,16
262,485	-19,93
262,694	24,71
262,904	5,05
263,114	-8,87
263,323	-39,18
263,533	-12,15
263,742	4,64
263,952	-1,91
264,161	31,27
264,371	0,55
264,58	-15,02
264,79	22,25
264,999	26,35
265,209	16,11
265,418	15,7
265,628	-6,01
265,837	17,34
266,047	14,06
266,256	19,39
266,466	-2,73
266,675	-10,92
266,884	25,94
267,094	-9,69
267,303	-4,78
267,513	-10,51
267,722	8,33
267,931	-8,87
268,141	-7,65
268,35	9,56
268,559	-4,78
268,769	-6,01
268,978	3,82
269,187	9,15
269,397	-10,1
269,606	4,23
269,815	-21,57
270,025	-32,63
270,234	-15,02
270,443	-28,94
270,653	11,61
270,862	11,61
271,071	18,16
271,28	10,79
271,49	6,28
271,699	-24,44
271,908	19,39
272,117	14,88
272,327	5,46
272,536	13,24
272,745	33,31
272,954	-10,92
273,163	21,44
273,372	12,01
273,582	14,47
273,791	-6,42
274	8,33
274,209	0,55
274,418	3,82
274,627	13,65
274,836	1,77
275,046	1,77
275,255	-7,65
275,464	7,51
275,673	27,58
275,882	-3,96
276,091	1,77
276,3	16,52
276,509	18,57
276,718	5,05
276,927	-17,48
277,136	-10,1
277,345	-2,32
277,554	39,05
277,763	3
277,972	35,77
278,181	41,92
278,39	-6,83
278,599	7,51
278,808	-32,22
279,017	-7,24
279,226	-8,46
279,435	0,96
279,644	-7,24
279,853	29,22
280,062	34,54
280,271	0,55
280,48	-3,55
280,688	-4,78
280,897	-40,41
281,106	17,75
281,315	-6,83
281,524	27,99
281,733	14,47
281,942	10,38
282,151	-10,92
282,359	-10,1
282,568	-0,68
282,777	-8,87
282,986	9,56
283,195	10,79
283,403	13,24
283,612	-2,32
283,821	1,77
284,03	16,93
284,238	-7,24
284,447	16,52
284,656	12,01
284,865	4,23
285,073	7,51
285,282	-3,55
285,491	-3,96
285,699	-6,01
285,908	-15,02
286,117	0,14
286,325	-8,46
286,534	-6,01
286,743	-3,96
286,951	-20,75
287,16	-19,93
287,369	7,1
287,577	-8,06
287,786	32,9
287,995	14,06
288,203	-6,01
288,412	21,85
288,62	22,66
288,829	9,56
289,037	-8,46
289,246	34,54
289,455	-1,09
289,663	6,28
289,872	10,38
290,08	4,64
290,289	38,23
290,497	10,38
290,706	10,79
290,914	-35,09
291,123	-7,24
291,331	-34,27
291,54	7,92
291,748	24,3
291,957	-1,91
292,165	9,56
292,373	-17,07
292,582	33,31
292,79	11,61
292,999	-31,81
293,207	10,79
293,415	0,55
293,624	19,39
293,832	3,41
294,041	9,97
294,249	2,18
294,457	12,01
294,666	-30,99
294,874	-7,65
295,082	7,92
295,291	-2,73
295,499	-6,83
295,707	-19,11
295,915	-37,96
296,124	12,83
296,332	4,64
296,54	29,22
296,749	-2,73
296,957	-1,5
297,165	-13,79
297,373	-15,02
297,581	26,76
297,79	-1,91
297,998	-10,92
298,206	-13,38
298,414	-22,39
298,622	8,74
298,831	3
299,039	7,92
299,247	7,92
299,455	-6,42
299,663	24,3
299,871	7,1
300,08	2,59
300,288	-0,68
300,496	10,79
300,704	-1,09
300,912	9,15
301,12	9,15
301,328	18,16
301,536	5,05
301,744	-9,69
301,952	17,34
302,16	6,28
302,368	-22,8
302,576	15,29
302,784	39,46
302,992	-2,73
303,2	-7,24
303,408	-17,07
303,616	15,29
303,824	13,65
304,032	-8,46
304,24	-12,15
304,448	0,14
304,656	-15,02
304,864	23,89
305,072	-26,08
305,28	23,07
305,488	14,47
305,696	-3,55
305,904	57,48
306,111	32,08
306,319	5,05
306,527	14,88
306,735	18,98
306,943	2,18
307,151	0,55
307,359	12,83
307,566	0,55
307,774	14,88
307,982	5,87
308,19	6,28
308,398	-16,25
308,605	22,25
308,813	1,37
309,021	12,42
309,229	19,39
309,436	5,05
309,644	23,89
309,852	7,51
310,06	-3,96
310,267	37,41
310,475	-6,01
310,683	10,79
310,89	5,87
311,098	5,87
311,306	-4,37
311,513	-1,09
311,721	-12,15
311,929	-22,39
312,136	-12,56
312,344	-17,48
312,552	-18,7
312,759	-24,85
312,967	28,4
313,174	8,74
313,382	-0,27
313,589	0,55
313,797	22,25
314,005	19,39
314,212	-33,86
314,42	17,75
314,627	9,97
314,835	16,11
315,042	5,05
315,25	10,38
315,457	-3,96
315,665	-1,09
315,872	-27,72
316,08	-17,07
316,287	0,55
316,495	46,83
316,702	3
316,909	16,52
317,117	27,99
317,324	14,88
317,532	5,46
317,739	-16,66
317,946	-15,02
318,154	12,01
318,361	12,01
318,569	21,44
318,776	-9,69
318,983	14,88
319,191	3,82
319,398	-22,39
319,605	12,83
319,813	22,25
320,02	-11,33
320,227	17,75
320,434	9,15
320,642	15,7
320,849	2,59
321,056	25,53
321,264	-10,51
321,471	17,34
321,678	0,14
321,885	8,33
322,092	7,92
322,3	37,41
322,507	-24,03
322,714	-2,73
322,921	-8,46
323,128	15,29
323,336	3,82
323,543	-10,1
323,75	-16,25
323,957	7,1
324,164	-23,62
324,371	5,05
324,578	-7,65
324,786	-6,01
324,993	-16,66
325,2	-16,25
325,407	4,23
325,614	-22,8
325,821	-10,51
326,028	-13,38
326,235	-9,69
326,442	-10,92
326,649	-15,84
326,856	-14,61
327,063	-21,57
327,27	4,23
327,477	-35,09
327,684	-10,1
327,891	-8,06
328,098	0,96
328,305	-9,28
328,512	-1,91
328,719	21,85
328,926	0,14
329,133	7,1
329,34	14,47
329,546	-21,98
329,753	6,69
329,96	9,97
330,167	7,92
330,374	14,88
330,581	13,65
330,788	-15,02
330,995	-9,28
331,201	24,71
331,408	2,59
331,615	7,92
331,822	-24,44
332,029	-19,93
332,235	0,96
332,442	-25,67
332,649	13,24
332,856	1,37
333,062	-14,2
333,269	-25,26
333,476	-6,83
333,683	-23,62
333,889	3,41
334,096	-19,11
334,303	46,83
334,509	-9,69
334,716	16,93
334,923	15,29
335,129	7,92
335,336	-8,06
335,543	-9,28
335,749	4,64
335,956	9,97
336,163	19,8
336,369	-8,87
336,576	-2,32
336,782	7,1
336,989	-11,33
337,196	14,47
337,402	-0,68
337,609	0,96
337,815	-8,46
338,022	2,59
338,228	11,61
338,435	23,89
338,641	-8,46
338,848	13,65
339,054	4,64
339,261	-12,97
339,467	0,96
339,674	21,85
339,88	0,96
340,087	-6,83
340,293	2,59
340,5	16,11
340,706	-7,24
340,912	-19,93
341,119	-15,84
341,325	21,44
341,532	23,07
341,738	-3,14
341,944	11,2
342,151	-10,92
342,357	-8,06
342,563	35,36
342,77	-25,67
342,976	17,34
343,182	24,3
343,389	-28,94
343,595	10,38
343,801	14,06
344,007	6,28
344,214	9,56
344,42	-9,28
344,626	18,16
344,832	5,87
345,039	3,41
345,245	18,57
345,451	9,97
345,657	-7,24
345,864	17,34
346,07	10,38
346,276	9,56
346,482	0,55
346,688	17,75
346,894	4,64
347,1	21,44
347,307	-17,48
347,513	0,14
347,719	30,04
347,925	12,01
348,131	0,55
348,337	2,59
348,543	-14,61
348,749	14,88
348,955	18,98
349,161	7,92
349,367	-9,28
349,573	7,92
349,779	9,97
349,985	6,28
350,191	-21,57
350,397	-0,68
350,603	-24,44
350,809	-4,78
351,015	-24,03
351,221	-17,89
351,427	-24,85
351,633	32,9
351,839	3
352,045	3
352,251	46,83
352,457	8,33
352,663	0,96
352,869	5,87
353,075	18,57
353,28	-35,5
353,486	-2,32
353,692	4,64
353,898	-13,38
354,104	-3,96
354,31	23,48
354,515	-17,89
354,721	12,01
354,927	0,14
355,133	-11,33
355,339	17,34
355,544	-15,84
355,75	18,16
355,956	10,79
356,162	32,9
356,367	6,28
356,573	14,06
356,779	-0,68
356,984	18,16
357,19	0,14
357,396	9,97
357,602	22,66
357,807	-7,65
358,013	4,64
358,218	-3,14
358,424	6,28
358,63	-29,35
358,835	-7,65
359,041	-1,5
359,247	-9,28
359,452	10,79
359,658	3,82
359,863	39,87
360,069	32,08
360,274	4,23
360,48	-10,1
360,685	5,87
360,891	-0,68
361,097	12,01
361,302	-1,91
361,508	24,3
361,713	34,13
361,918	13,24
362,124	9,15
362,329	14,06
362,535	22,66
362,74	4,64
362,946	-15,43
363,151	21,03
363,357	18,57
363,562	1,77
363,767	-25,26
363,973	31,68
364,178	-0,27
364,383	-30,58
364,589	-6,01
364,794	23,48
365	-6,83
365,205	28,81
365,41	3,82
365,615	25,12
365,821	16,93
366,026	-6,01
366,231	18,98
366,437	-5,19
366,642	-11,33
366,847	-3,14
367,052	-7,24
367,258	0,55
367,463	12,83
367,668	24,71
367,873	16,52
368,078	2,18
368,284	-22,39
368,489	35,36
368,694	8,74
368,899	4,64
369,104	-12,56
369,309	-1,09
369,515	-26,08
369,72	12,83
369,925	-8,87
370,13	5,05
370,335	27,99
370,54	23,07
370,745	-3,96
370,95	-12,97
371,155	14,06
371,36	43,55
371,565	-5,6
371,77	21,44
371,975	21,85
372,18	9,97
372,385	18,57
372,59	8,74
372,795	-16,66
373	22,66
373,205	11,61
373,41	26,76
373,615	-9,69
373,82	-17,89
374,025	-2,73
374,23	-19,93
374,435	0,96
374,64	2,18
374,845	-9,69
375,05	19,39
375,254	-7,65
375,459	0,96
375,664	1,37
375,869	2,59
376,074	-5,19
376,279	4,23
376,483	-1,09
376,688	32,08
376,893	-21,98
377,098	-1,09
377,303	-5,6
377,507	-12,56
377,712	16,52
377,917	-4,78
378,122	-9,28
378,326	22,25
378,531	0,96
378,736	1,37
378,94	34,13
379,145	14,88
379,35	34,54
379,554	24,3
379,759	-5,19
379,964	26,76
380,168	-11,74
380,373	32,08
380,578	-9,69
380,782	14,47
380,987	-30,58
381,191	46,01
381,396	-35,09
381,601	42,32
381,805	36,18
382,01	19,8
382,214	25,53
382,419	8,74
382,623	3,41
382,828	-6,01
383,032	-1,09
383,237	-8,06
383,441	-3,96
383,646	-17,07
383,85	-7,65
384,055	-18,3
384,259	3,41
384,464	5,46
384,668	14,06
384,872	18,57
385,077	-7,24
385,281	-19,52
385,486	9,15
385,69	1,77
385,894	22,66
386,099	8,74
386,303	5,46
386,507	25,53
386,712	16,52
386,916	11,2
387,12	19,39
387,325	5,05
387,529	-35,5
387,733	7,51
387,937	-10,92
388,142	-10,1
388,346	-18,7
388,55	7,51
388,754	10,79
388,959	21,03
389,163	9,15
389,367	8,74
389,571	-21,57
389,775	12,42
389,98	-5,6
390,184	20,62
390,388	-3,96
390,592	-22,39
390,796	-2,73
391	20,62
391,204	-26,49
391,409	1,77
391,613	17,75
391,817	-11,33
392,021	-17,48
392,225	-15,84
392,429	-6,01
392,633	6,69
392,837	-6,42
393,041	-2,32
393,245	3,82
393,449	-8,06
393,653	3,41
393,857	-12,97
394,061	1,37
394,265	16,93
394,469	-14,2
394,673	19,39
394,877	3,82
395,081	28,4
395,285	28,4
395,489	7,51
395,693	-13,38
395,896	-1,5
396,1	-14,61
396,304	-21,57
396,508	-24,44
396,712	0,55
396,916	12,42
397,12	-7,24
397,323	24,3
397,527	32,08
397,731	16,52
397,935	-1,5
398,139	19,8
398,342	-9,69
398,546	-3,55
398,75	-15,02
398,954	6,28
399,157	21,03
399,361	13,24
399,565	-1,91
399,769	-5,6
399,972	4,23
400,176	12,83
400,38	-2,32
400,583	18,98
400,787	8,33
400,991	-12,97
401,194	33,31
401,398	-3,14
401,601	5,46
401,805	13,65
402,009	-23,21
402,212	7,92
402,416	-10,1
402,619	-15,84
402,823	-40,41
403,026	32,9
403,23	12,42
403,433	-18,3
403,637	22,25
403,841	-10,92
404,044	15,7
404,247	2,18
404,451	12,83
404,654	-12,56
404,858	15,29
405,061	6,28
405,265	10,79
405,468	-9,69
405,672	3
405,875	-17,07
406,078	-1,5
406,282	-10,51
406,485	2,59
406,689	14,06
406,892	5,87
407,095	-10,51
407,299	2,59
407,502	27,17
407,705	13,24
407,909	-18,7
408,112	5,87
408,315	16,11
408,518	-13,79
408,722	16,93
408,925	5,46
409,128	27,99
409,331	0,55
409,535	41,51
409,738	-26,9
409,941	9,56
410,144	-11,74
410,347	9,97
410,551	15,29
410,754	6,69
410,957	4,64
411,16	5,87
411,363	-0,27
411,566	21,03
411,769	4,23
411,973	4,23
412,176	18,98
412,379	14,06
412,582	-37,55
412,785	9,15
412,988	5,46
413,191	-15,84
413,394	-10,1
413,597	11,2
413,8	-19,93
414,003	27,58
414,206	-17,07
414,409	21,85
414,612	39,05
414,815	17,34
415,018	20,21
415,221	14,47
415,424	19,8
415,627	16,52
415,83	19,39
416,033	13,24
416,235	4,23
416,438	18,16
416,641	28,81
416,844	-9,28
417,047	-3,55
417,25	-4,78
417,453	28,81
417,655	-18,7
417,858	5,46
418,061	-5,6
418,264	11,2
418,467	14,06
418,669	26,35
418,872	12,01
419,075	0,55
419,278	1,37
419,48	21,03
419,683	21,03
419,886	-12,15
420,089	7,51
420,291	5,46
420,494	8,33
420,697	-8,06
420,899	9,97
421,102	-10,1
421,305	7,1
421,507	11,61
421,71	-3,14
421,912	6,28
422,115	-19,93
422,318	17,34
422,52	3
422,723	16,11
422,925	9,97
423,128	5,05
423,33	-1,91
423,533	-8,06
423,735	8,74
423,938	-1,09
424,14	14,47
424,343	7,1
424,545	1,77
424,748	-11,74
424,95	-3,96
425,153	17,75
425,355	-11,74
425,558	27,99
425,76	13,24
425,962	23,48
426,165	-1,91
426,367	-12,56
426,57	-2,32
426,772	1,77
426,974	-16,66
427,177	30,04
427,379	24,71
427,581	14,06
427,784	5,46
427,986	-15,02
428,188	-13,79
428,39	36,59
428,593	-4,78
428,795	9,56
428,997	-1,5
429,2	4,64
429,402	-8,06
429,604	21,85
429,806	13,65
430,008	-10,92
430,211	-13,79
430,413	-2,32
430,615	20,62
430,817	2,59
431,019	-6,01
431,221	27,17
431,423	-11,74
431,626	27,99
431,828	-39,18
432,03	9,15
432,232	11,61
432,434	21,85
432,636	-1,5
432,838	-20,34
433,04	19,8
433,242	8,74
433,444	-17,48
433,646	0,55
433,848	-8,87
434,05	-30,99
434,252	8,33
434,454	22,66
434,656	8,33
434,858	-12,56
435,06	3,82
435,262	3
435,464	5,87
435,666	4,23
435,868	-7,24
436,07	27,17
436,271	-14,61
436,473	-21,16
436,675	-5,19
436,877	11,2
437,079	11,61
437,281	7,51
437,482	8,33
437,684	22,66
437,886	-20,34
438,088	4,64
438,29	10,38
438,491	34,54
438,693	-5,19
438,895	-13,79
439,097	9,97
439,298	-4,78
439,5	-2,32
439,702	12,01
439,903	-20,34
440,105	24,71
440,307	35,77
440,508	7,1
440,71	4,23
440,912	-19,52
441,113	9,15
441,315	9,15
441,517	-26,9
441,718	-3,96
441,92	-2,73
442,121	-8,06
442,323	-2,32
442,524	11,2
442,726	-8,06
442,928	31,68
443,129	12,01
443,331	-18,7
443,532	22,66
443,734	-1,09
443,935	33,72
444,136	-2,32
444,338	-5,19
444,539	-3,96
444,741	15,29
444,942	-6,42
445,144	1,37
445,345	12,83
445,546	-6,01
445,748	16,11
445,949	-5,19
446,151	-14,61
446,352	3,82
446,553	26,35
446,755	22,25
446,956	-8,06
447,157	10,79
447,359	9,97
447,56	0,96
447,761	5,05
447,962	11,61
448,164	14,06
448,365	15,29
448,566	10,38
448,767	-33,04
448,969	0,55
449,17	4,64
449,371	2,18
449,572	-21,57
449,773	25,94
449,974	-20,34
450,176	-22,8
450,377	5,05
450,578	-11,74
450,779	-1,5
450,98	-1,91
451,181	10,79
451,382	-8,87
451,583	0,55
451,784	7,51
451,986	-27,31
452,187	15,7
452,388	2,59
452,589	21,85
452,79	-4,78
452,991	37,82
453,192	7,92
453,393	14,88
453,594	-15,02
453,795	5,87
453,995	4,23
454,196	36,59
454,397	-8,87
454,598	-1,91
454,799	-0,27
455	-15,02
455,201	-10,92
455,402	-16,66
455,603	-41,64
455,804	48,88
456,004	2,18
456,205	-14,61
456,406	-9,28
456,607	0,14
456,808	7,92
457,008	-18,3
457,209	5,87
457,41	7,1
457,611	28,4
457,811	34,54
458,012	-11,33
458,213	-4,37
458,414	-3,14
458,614	30,45
458,815	17,34
459,016	9,97
459,216	19,39
459,417	-9,28
459,618	-10,92
459,818	0,55
460,019	5,46
460,22	-8,06
460,42	-8,46
460,621	2,59
460,821	-13,38
461,022	16,52
461,223	-0,27
461,423	-10,92
461,624	28,81
461,824	-2,73
462,025	-19,52
462,225	5,87
462,426	-0,27
462,626	-4,78
462,827	13,65
463,027	-8,87
463,228	-12,97
463,428	-7,65
463,628	3,82
463,829	-1,5
464,029	-19,11
464,23	5,87
464,43	1,37
464,63	22,66
464,831	-24,44
465,031	1,77
465,231	22,25
465,432	22,66
465,632	-6,42
465,832	-13,38
466,033	-30,58
466,233	4,23
466,433	-1,91
466,634	-6,01
466,834	40,69
467,034	0,96
467,234	4,64
467,435	7,92
467,635	27,58
467,835	2,18
468,035	21,85
468,235	22,25
468,436	-4,78
468,636	-30,58
468,836	-5,19
469,036	14,88
469,236	13,24
469,436	8,74
469,636	7,51
469,836	9,15
470,037	23,89
470,237	-3,96
470,437	6,69
470,637	9,97
470,837	30,04
471,037	18,57
471,237	9,56
471,437	0,14
471,637	1,37
471,837	19,8
472,037	-31,81
472,237	6,28
472,437	-26,9
472,637	12,01
472,837	3
473,036	-6,01
473,236	4,23
473,436	-12,97
473,636	16,11
473,836	9,97
474,036	-5,19
474,236	19,8
474,436	18,57
474,635	41,1
474,835	-0,27
475,035	1,77
475,235	-16,66
475,435	3,41
475,634	9,56
475,834	2,59
476,034	-8,46
476,234	-2,32
476,433	-24,44
476,633	31,68
476,833	16,11
477,033	-23,62
477,232	3,41
477,432	-11,33
477,632	1,37
477,831	16,11
478,031	6,28
478,231	-6,01
478,43	-6,42
478,63	-27,72
478,829	-9,28
479,029	25,53
479,229	4,64
479,428	-0,27
479,628	3,41
479,827	9,15
480,027	-12,56
480,226	29,63
480,426	1,77
480,625	9,97
480,825	-17,89
481,024	-6,83
481,224	24,3
481,423	32,08
481,623	-3,96
481,822	-28,13
482,021	19,39
482,221	3
482,42	-1,09
482,62	9,15
482,819	-12,15
483,018	29,63
483,218	-16,25
483,417	-12,97
483,616	-21,16
483,816	27,17
484,015	5,87
484,214	-19,11
484,414	0,55
484,613	28,4
484,812	8,74
485,011	12,01
485,211	-8,06
485,41	17,34
485,609	-9,69
485,808	-13,38
486,008	4,23
486,207	4,64
486,406	16,52
486,605	-19,93
486,804	6,28
487,003	12,01
487,203	11,61
487,402	-8,06
487,601	-28,13
487,8	23,89
487,999	-20,75
488,198	-13,79
488,397	-7,24
488,596	29,22
488,795	-7,65
488,994	13,24
489,193	-4,78
489,392	27,58
489,591	-5,19
489,79	10,38
489,989	16,11
490,188	18,57
490,387	-4,37
490,586	0,55
490,785	3,82
490,984	39,87
491,183	10,38
491,382	0,55
491,581	15,29
491,779	-15,02
491,978	9,97
492,177	34,54
492,376	0,14
492,575	3,41
492,774	-10,92
492,972	1,37
493,171	5,05
493,37	-12,15
493,569	42,73
493,768	28,81
493,966	5,05
494,165	-4,78
494,364	15,7
494,563	7,92
494,761	22,66
494,96	-23,62
495,159	-5,6
495,357	4,64
495,556	-6,42
495,755	-9,69
495,953	-10,51
496,152	-3,14
496,35	-11,33
496,549	20,62
496,748	15,7
496,946	18,16
497,145	15,29
497,343	-5,19
497,542	-33,45
497,74	1,37
497,939	0,14
498,137	-0,68
498,336	-10,92
498,534	19,39
498,733	-40,41
498,931	7,92
499,13	7,51
499,328	41,1
499,527	21,44
499,725	11,2
499,924	16,11
500,122	-28,94
500,32	-23,62
500,519	30,04
500,717	-12,56
500,915	-9,28
501,114	-30,17
501,312	-10,92
501,51	15,7
501,709	13,65
501,907	-9,69
502,105	27,58
502,304	-9,69
502,502	26,76
502,7	-1,09
502,898	-5,19
503,097	3,82
503,295	-23,21
503,493	-18,3
503,691	-23,21
503,889	-12,97
504,088	5,46
504,286	18,98
504,484	27,17
504,682	-5,19
504,88	-8,06
505,078	-2,73
505,276	50,11
505,474	-0,27
505,672	5,87
505,871	-7,24
506,069	23,48
506,267	8,74
506,465	-14,61
506,663	-6,83
506,861	-24,03
507,059	20,21
507,257	8,74
507,455	-21,98
507,653	5,87
507,851	-3,96
508,049	4,23
508,246	7,51
508,444	9,97
508,642	9,15
508,84	32,08
509,038	7,92
509,236	-6,83
509,434	9,97
509,632	38,64
509,829	32,49
510,027	6,28
510,225	-17,07
510,423	-19,93
510,621	-3,96
510,818	2,18
511,016	16,52
511,214	3,41
511,412	3
511,609	-2,32
511,807	8,74
512,005	-7,24
512,203	-10,51
512,4	4,23
512,598	20,21
512,796	-2,32
512,993	2,59
513,191	-35,09
513,389	-8,87
513,586	-0,27
513,784	27,99
513,981	5,46
514,179	5,87
514,377	9,15
514,574	27,17
514,772	3
514,969	2,18
515,167	-1,91
515,364	-5,19
515,562	-21,98
515,759	-3,55
515,957	14,06
516,154	-33,04
516,352	35,77
516,549	16,11
516,746	-2,32
516,944	28,4
517,141	3,41
517,339	-15,43
517,536	7,51
517,733	12,42
517,931	1,37
518,128	-5,6
518,325	-15,43
518,523	6,28
518,72	13,24
518,917	-5,19
519,115	11,61
519,312	6,28
519,509	5,87
519,707	-10,92
519,904	-16,66
520,101	2,18
520,298	14,06
520,495	15,7
520,693	18,98
520,89	18,16
521,087	10,79
521,284	-3,96
521,481	-6,83
521,678	12,01
521,876	20,62
522,073	-25,67
522,27	21,85
522,467	1,77
522,664	-6,01
522,861	-23,62
523,058	11,61
523,255	-14,2
523,452	9,56
523,649	-32,63
523,846	6,28
524,043	-13,79
524,24	-1,09
524,437	16,93
524,634	-19,11
524,831	-5,6
525,028	3,41
525,225	23,07
525,422	26,76
525,619	-15,43
525,816	21,85
526,013	21,03
526,209	5,87
526,406	12,83
526,603	-4,37
526,8	-1,91
526,997	9,97
527,194	5,05
527,39	7,92
527,587	24,3
527,784	-10,51
527,981	28,81
528,177	20,62
528,374	-2,32
528,571	16,11
528,768	27,58
528,964	45,6
529,161	-31,4
529,358	12,42
529,554	-16,25
529,751	3
529,948	-8,87
530,144	0,55
530,341	12,01
530,537	-3,14
530,734	-1,5
530,931	-15,43
531,127	-7,65
531,324	-1,09
531,52	2,59
531,717	-15,43
531,913	-8,87
532,11	-3,14
532,306	-5,6
532,503	-15,43
532,699	-10,51
532,896	23,89
533,092	-3,96
533,289	-8,46
533,485	65,67
533,682	6,28
533,878	-4,78
534,074	-27,31
534,271	7,1
534,467	13,24
534,664	-12,97
534,86	4,64
535,056	25,53
535,253	-2,73
535,449	-7,65
535,645	-12,15
535,841	-0,27
536,038	-11,74
536,234	-23,62
536,43	-23,21
536,626	-6,01
536,823	27,17
537,019	12,42
537,215	19,8
537,411	-6,01
537,607	-6,83
537,804	29,22
538	-0,68
538,196	22,25
538,392	-35,91
538,588	6,69
538,784	18,16
538,98	7,1
539,176	4,64
539,373	17,34
539,569	-36,73
539,765	-11,74
539,961	33,72
540,157	9,97
540,353	-5,19
540,549	2,59
540,745	13,24
540,941	-7,65
541,137	-4,37
541,333	30,86
541,528	-19,52
541,724	25,53
541,92	9,56
542,116	0,14
542,312	26,35
542,508	-2,32
542,704	19,39
542,9	22,66
543,096	-23,21
543,291	-14,2
543,487	-10,51
543,683	-6,42
543,879	18,57
544,075	-4,37
544,27	15,29
544,466	-15,84
544,662	19,39
544,858	5,05
545,053	16,11
545,249	-5,19
545,445	-19,52
545,64	-3,55
545,836	9,56
546,032	-4,78
546,227	-0,27
546,423	-2,32
546,619	3,82
546,814	14,06
547,01	-1,09
547,205	-17,48
547,401	-4,37
547,597	-25,26
547,792	21,44
547,988	-3,96
548,183	6,28
548,379	9,97
548,574	12,42
548,77	-2,73
548,965	44,37
549,161	12,83
549,356	-2,73
549,552	0,14
549,747	3,41
549,942	13,65
550,138	23,48
550,333	-1,5
550,529	19,8
550,724	0,14
550,919	-6,01
551,115	0,96
551,31	-8,06
551,505	0,55
551,701	9,15
551,896	25,94
552,091	27,99
552,287	17,75
552,482	13,24
552,677	-28,94
552,872	-16,25
553,067	-9,28
553,263	0,55
553,458	14,47
553,653	12,01
553,848	12,42
554,043	-1,91
554,239	-8,46
554,434	1,37
554,629	-14,61
554,824	-1,5
555,019	20,62
555,214	38,64
555,409	-9,28
555,604	20,21
555,799	-3,55
555,994	27,58
556,189	3,41
556,384	3,41
556,579	-20,75
556,774	2,18
556,969	-21,98
557,164	3
557,359	3
557,554	-27,31
557,749	-8,87
557,944	13,24
558,139	-6,01
558,334	22,25
558,529	17,34
558,724	13,24
558,918	-1,09
559,113	0,55
559,308	-6,01
559,503	-8,87
559,698	-10,92
559,893	5,46
560,087	22,25
560,282	-15,84
560,477	30,04
560,672	5,05
560,866	11,2
561,061	6,28
561,256	16,52
561,45	-0,68
561,645	-2,32
561,84	17,75
562,034	4,64
562,229	2,59
562,424	-22,8
562,618	10,79
562,813	9,97
563,008	2,59
563,202	11,61
563,397	7,92
563,591	11,61
563,786	12,83
563,98	19,8
564,175	7,51
564,369	16,52
564,564	-7,24
564,758	1,77
564,953	1,37
565,147	6,28
565,342	5,46
565,536	-3,96
565,731	-1,5
565,925	-6,83
566,119	-12,56
566,314	3,82
566,508	48,47
566,703	5,05
566,897	25,12
567,091	31,68
567,286	49,7
567,48	34,95
567,674	21,85
567,868	-13,38
568,063	-7,65
568,257	-8,06
568,451	9,15
568,646	31,27
568,84	-17,07
569,034	-16,25
569,228	22,66
569,422	4,23
569,616	-16,25
569,811	-4,78
570,005	-6,42
570,199	7,51
570,393	-6,83
570,587	14,47
570,781	-36,73
570,975	-4,37
571,169	-7,24
571,364	7,1
571,558	44,78
571,752	-23,62
571,946	17,34
572,14	17,75
572,334	18,57
572,528	5,87
572,722	14,47
572,916	9,56
573,109	30,45
573,303	-12,15
573,497	6,28
573,691	16,11
573,885	24,3
574,079	10,79
574,273	-6,01
574,467	2,59
574,661	-0,68
574,854	20,62
575,048	15,7
575,242	2,59
575,436	-2,32
575,63	-14,2
575,823	25,12
576,017	-19,11
576,211	3,82
576,405	-29,35
576,598	7,51
576,792	0,96
576,986	23,48
577,18	-1,91
577,373	5,05
577,567	7,51
577,761	3,41
577,954	-21,16
578,148	-8,06
578,341	-0,68
578,535	18,16
578,729	-28,54
578,922	14,88
579,116	-18,3
579,309	4,23
579,503	9,97
579,696	32,08
579,89	9,15
580,083	8,33
580,277	-1,09
580,47	36,18
580,664	-12,97
580,857	5,05
581,051	-15,43
581,244	8,74
581,437	-0,27
581,631	7,92
581,824	-3,55
582,018	23,89
582,211	2,59
582,404	36,59
582,598	-2,32
582,791	21,44
582,984	3
583,178	-7,24
583,371	-6,42
583,564	38,64
583,757	-1,5
583,951	12,42
584,144	6,28
584,337	18,57
584,53	-9,69
584,723	-2,32
584,917	35,77
585,11	4,64
585,303	19,39
585,496	35,77
585,689	18,16
585,882	0,96
586,075	14,47
586,268	42,73
586,462	150,87
586,655	410,96
586,848	1065,9
587,041	2087,84
587,234	2846,81
587,427	3502,16
587,62	4340,19
587,813	4315,21
588,006	3788,88
588,199	3245,76
588,392	2725,98
588,585	1924,82
588,777	1339,51
588,97	1003,23
589,163	798,43
589,356	618,62
589,549	550,22
589,742	441,68
589,935	373,28
590,128	345,42
590,32	304,87
590,513	295,86
590,706	248,76
590,899	225,82
591,092	198,38
591,284	158,24
591,477	123,83
591,67	83,69
591,863	98,44
592,055	55,02
592,248	46,42
592,441	26,35
592,633	46,83
592,826	37,82
593,019	0,14
593,211	20,62
593,404	13,24
593,596	32,9
593,789	-3,14
593,982	-32,22
594,174	0,96
594,367	4,64
594,559	-24,03
594,752	20,62
594,944	4,64
595,137	22,25
595,329	30,45
595,522	24,3
595,714	-26,9
595,907	1,37
596,099	44,37
596,292	24,71
596,484	-4,78
596,676	-7,24
596,869	13,24
597,061	34,95
597,253	-15,84
597,446	5,05
597,638	9,15
597,83	-10,51
598,023	23,89
598,215	-5,19
598,407	-8,87
598,6	7,1
598,792	-16,66
598,984	-22,39
599,176	-20,34
599,369	-15,84
599,561	-37,96
599,753	0,55
599,945	1,37
600,137	36,18
600,329	4,23
600,522	15,29
600,714	14,47
600,906	-5,6
601,098	10,38
601,29	8,74
601,482	27,99
601,674	8,74
601,866	14,06
602,058	17,34
602,25	23,48
602,442	16,11
602,634	-29,76
602,826	-1,91
603,018	-16,25
603,21	33,31
603,402	-9,69
603,594	45,19
603,786	18,98
603,978	11,2
604,17	32,49
604,362	5,05
604,554	36,59
604,745	13,24
604,937	18,98
605,129	17,75
605,321	6,28
605,513	21,03
605,704	27,99
605,896	2,18
606,088	-3,55
606,28	7,51
606,471	18,57
606,663	-15,84
606,855	-9,28
607,047	-11,74
607,238	-14,61
607,43	26,35
607,622	-1,5
607,813	6,28
608,005	16,93
608,197	-7,65
608,388	-6,83
608,58	17,75
608,771	7,1
608,963	-45,33
609,154	-3,96
609,346	25,12
609,537	0,55
609,729	-12,97
609,921	7,1
610,112	13,65
610,303	34,54
610,495	1,37
610,686	15,29
610,878	16,93
611,069	-14,2
611,261	1,77
611,452	-6,01
611,643	-22,8
611,835	-10,51
612,026	-16,66
612,217	-0,68
612,409	10,38
612,6	-26,9
612,791	-10,51
612,983	14,47
613,174	16,52
613,365	-3,96
613,557	30,04
613,748	5,05
613,939	10,38
614,13	27,58
614,321	27,99
614,513	43,96
614,704	23,89
614,895	-1,91
615,086	40,28
615,277	14,47
615,468	9,15
615,659	-14,2
615,851	53,79
616,042	12,42
616,233	1,77
616,424	0,96
616,615	7,1
616,806	-11,33
616,997	12,42
617,188	-1,09
617,379	3,41
617,57	3,41
617,761	16,11
617,952	15,29
618,143	21,85
618,334	-15,43
618,524	20,21
618,715	16,52
618,906	-26,9
619,097	6,69
619,288	6,28
619,479	5,87
619,67	7,51
619,86	-7,65
620,051	-13,38
620,242	-9,28
620,433	0,14
620,624	-17,89
620,814	-2,32
621,005	23,89
621,196	9,97
621,386	4,64
621,577	18,98
621,768	1,77
621,958	36,18
622,149	32,9
622,34	34,13
622,53	-9,28
622,721	-16,66
622,912	-28,13
623,102	7,51
623,293	7,51
623,483	2,18
623,674	-12,15
623,864	18,57
624,055	3,82
624,245	-13,79
624,436	-1,09
624,626	21,03
624,817	-19,52
625,007	6,28
625,198	-10,51
625,388	6,28
625,579	5,87
625,769	41,51
625,959	-5,19
626,15	-8,87
626,34	3,41
626,531	11,61
626,721	24,3
626,911	-10,51
627,101	24,3
627,292	13,24
627,482	15,29
627,672	28,81
627,863	-9,69
628,053	10,38
628,243	16,52
628,433	-2,73
628,623	5,46
628,814	-15,43
629,004	13,24
629,194	-10,92
629,384	-26,9
629,574	-32,22
629,764	43,55
629,955	7,1
630,145	-3,55
630,335	-17,48
630,525	-14,2
630,715	-17,48
630,905	0,96
631,095	-57,62
631,285	-8,06
631,475	-25,67
631,665	-3,55
631,855	-30,17
632,045	-7,65
632,235	-10,1
632,425	4,23
632,615	-8,06
632,805	5,46
632,994	13,65
633,184	-2,73
633,374	-17,89
633,564	-15,43
633,754	1,37
633,944	23,07
634,133	-11,33
634,323	10,38
634,513	16,11
634,703	7,51
634,893	0,96
635,082	12,01
635,272	-16,66
635,462	8,74
635,651	18,57
635,841	-7,65
636,031	-5,6
636,221	-10,1
636,41	-20,34
636,6	9,56
636,789	26,76
636,979	4,64
637,169	9,15
637,358	-9,28
637,548	-5,6
637,737	-28,94
637,927	9,56
638,116	-8,06
638,306	-2,32
638,495	-0,27
638,685	12,42
638,874	4,64
639,064	-1,5
639,253	-27,72
639,443	4,23
639,632	-16,66
639,822	7,1
640,011	3
640,2	-6,83
640,39	-1,09
640,579	16,11
640,768	-1,5
640,958	-17,07
641,147	-16,25
641,336	-4,37
641,526	-3,96
641,715	5,46
641,904	-1,91
642,093	18,16
642,283	1,77
642,472	-1,09
642,661	6,69
642,85	37,41
643,039	6,28
643,228	5,87
643,418	0,55
643,607	15,7
643,796	28,4
643,985	-7,24
644,174	-12,97
644,363	5,05
644,552	6,28
644,741	25,12
644,93	-12,56
645,119	22,66
645,308	17,34
645,497	-17,48
645,686	27,17
645,875	-26,49
646,064	27,17
646,253	-6,42
646,442	-8,46
646,631	-19,11
646,82	5,87
647,009	-10,51
647,198	9,97
647,387	-30,58
647,575	-12,97
647,764	63,21
647,953	-3,14
648,142	1,77
648,331	-1,91
648,519	21,03
648,708	-7,65
648,897	17,75
649,086	16,52
649,274	-14,2
649,463	7,1
649,652	5,87
649,84	-8,46
650,029	0,55
650,218	-3,96
650,406	18,16
650,595	-0,68
650,784	-6,83
650,972	26,76
651,161	38,23
651,349	-17,48
651,538	14,47
651,726	-1,5
651,915	13,24
652,104	7,1
652,292	-10,1
652,481	-22,39
652,669	7,92
652,857	-44,92
653,046	-8,06
653,234	-24,03
653,423	4,23
653,611	19,39
653,8	14,88
653,988	-14,2
654,176	-10,92
654,365	12,42
654,553	3,41
654,741	11,61
654,93	-17,89
655,118	-12,15
655,306	20,21
655,494	-31,4
655,683	-2,73
655,871	-1,5
656,059	14,88
656,247	-24,44
656,436	25,94
656,624	-13,38
656,812	21,85
657	7,1
657,188	27,58
657,376	-4,37
657,564	-11,74
657,753	-8,46
657,941	-3,55
658,129	0,55
658,317	-1,91
658,505	-6,42
658,693	17,75
658,881	-4,78
659,069	22,66
659,257	-18,7
659,445	36,18
659,633	-15,84
659,821	-10,51
660,009	-43,28
660,197	-3,55
660,384	-10,51
660,572	20,21
660,76	-12,97
660,948	19,39
661,136	18,57
661,324	-3,55
661,512	13,65
661,699	3
661,887	32,08
662,075	19,8
662,263	7,51
662,451	25,12
662,638	-26,9
662,826	-8,46
663,014	16,52
663,201	-4,78
663,389	-14,61
663,577	15,29
663,764	25,94
663,952	-7,24
664,14	3
664,327	18,16
664,515	34,95
664,702	20,62
664,89	13,65
665,078	2,18
665,265	-15,84
665,453	12,42
665,64	12,42
665,828	9,56
666,015	10,38
666,203	23,07
666,39	-20,34
666,578	-12,97
666,765	1,37
666,952	38,64
667,14	-8,46
667,327	10,38
667,515	-3,14
667,702	-7,24
667,889	-3,14
668,077	-7,24
668,264	-12,15
668,451	2,59
668,638	-7,24
668,826	6,69
669,013	-8,06
669,2	9,56
669,388	11,2
669,575	-17,48
669,762	-22,39
669,949	-12,97
670,136	86,97
670,323	2,59
670,511	18,98
670,698	5,87
670,885	19,8
671,072	14,06
671,259	22,25
671,446	26,76
671,633	-16,66
671,82	1,37
672,007	-19,11
672,194	20,21
672,381	5,46
672,568	14,06
672,755	-19,52
672,942	-7,65
673,129	4,64
673,316	23,89
673,503	15,29
673,69	31,27
673,877	-7,65
674,064	2,59
674,251	-19,11
674,437	32,08
674,624	5,05
674,811	15,29
674,998	-7,65
675,185	1,77
675,372	-8,87
675,558	19,39
675,745	17,75
675,932	2,59
676,119	-8,46
676,305	-0,27
676,492	16,11
676,679	-24,44
676,865	-4,78
677,052	13,65
677,239	11,2
677,425	25,94
677,612	-0,27
677,798	-2,73
677,985	-20,75
678,172	43,96
678,358	24,3
678,545	-12,56
678,731	-5,6
678,918	-12,97
679,104	15,7
679,291	32,49
679,477	15,7
679,664	15,29
679,85	3
680,036	11,2
680,223	-8,06
680,409	13,65
680,596	8,74
680,782	31,68
680,968	-2,32
681,155	16,11
681,341	-15,84
681,527	24,3
681,714	29,22
681,9	32,9
682,086	3,82
682,272	-7,65
682,459	-21,57
682,645	-3,55
682,831	-33,04
683,017	21,85
683,204	33,72
683,39	23,48
683,576	-4,78
683,762	25,12
683,948	-20,34
684,134	20,62
684,32	-1,09
684,506	-15,43
684,693	-2,73
684,879	-2,32
685,065	2,59
685,251	-11,74
685,437	17,75
685,623	6,28
685,809	16,11
685,995	11,2
686,181	16,52
686,366	32,9
686,552	-14,2
686,738	-12,97
686,924	-15,43
687,11	-1,09
687,296	18,16
687,482	-6,83
687,668	-16,25
687,853	5,05
688,039	-28,94
688,225	-9,69
688,411	5,05
688,597	22,66
688,782	-1,09
688,968	5,05
689,154	23,89
689,34	-3,96
689,525	-1,91
689,711	-6,83
689,897	22,66
690,082	14,47
690,268	7,51
690,454	10,79
690,639	-6,01
690,825	7,51
691,01	26,76
691,196	-2,32
691,381	14,47
691,567	-4,78
691,753	-18,7
691,938	-6,01
692,124	6,28
692,309	-11,74
692,494	4,64
692,68	-10,92
692,865	-2,73
693,051	-3,96
693,236	4,64
693,422	11,61
693,607	4,23
693,792	13,24
693,978	-17,48
694,163	25,53
694,348	5,46
694,534	16,93
694,719	21,44
694,904	-25,26
695,089	24,3
695,275	-6,42
695,46	-0,27
695,645	-10,51
695,83	-10,1
696,016	-19,11
696,201	20,21
696,386	2,59
696,571	16,52
696,756	13,65
696,941	19,39
697,126	14,06
697,311	-24,85
697,497	-9,69
697,682	16,93
697,867	-11,74
698,052	14,47
698,237	19,39
698,422	-3,14
698,607	-18,7
698,792	-11,74
698,977	-3,14
699,162	-5,6
699,347	7,92
699,531	4,64
699,716	17,75
699,901	-21,98
700,086	19,39
700,271	12,42
700,456	12,01
700,641	-10,92
700,825	5,46
701,01	-26,49
701,195	7,1
701,38	-10,1
701,565	14,47
701,749	-8,87
701,934	-29,76
702,119	28,4
702,303	1,77
702,488	-8,87
702,673	-17,07
702,857	18,16
703,042	5,46
703,227	16,11
703,411	7,1
703,596	-23,21
703,78	-8,87
703,965	15,29
704,15	-3,14
704,334	-7,65
704,519	16,93
704,703	0,96
704,888	-17,89
705,072	-17,89
705,257	20,62
705,441	14,06
705,625	10,38
705,81	-4,37
705,994	-8,46
706,179	-7,24
706,363	15,29
706,547	21,85
706,732	44,78
706,916	-5,6
707,1	6,69
707,285	-8,87
707,469	0,55
707,653	-15,43
707,837	34,95
708,022	8,33
708,206	36,59
708,39	-15,84
708,574	-8,06
708,759	27,17
708,943	21,85
709,127	6,28
709,311	21,85
709,495	16,11
709,679	1,37
709,863	4,23
710,047	-31,4
710,231	32,9
710,415	-17,07
710,6	-12,15
710,784	13,24
710,968	3,82
711,152	10,38
711,336	-2,73
711,519	-19,11
711,703	1,77
711,887	25,94
712,071	-8,87
712,255	-6,01
712,439	-1,91
712,623	2,18
712,807	-33,04
712,991	-6,42
713,174	4,23
713,358	29,22
713,542	13,65
713,726	-19,93
713,91	10,38
714,093	19,39
714,277	5,46
714,461	11,2
714,645	3,82
714,828	6,69
715,012	-19,52
715,196	12,42
715,379	-17,48
715,563	-8,87
715,747	6,28
715,93	3,41
716,114	21,03
716,297	-6,42
716,481	2,59
716,664	7,1
716,848	-0,27
717,031	23,48
717,215	-3,55
717,398	29,63
717,582	7,92
717,765	31,27
717,949	-8,87
718,132	27,99
718,316	4,64
718,499	-6,01
718,682	0,55
718,866	0,55
719,049	12,83
719,233	-28,13
719,416	-5,19
719,599	16,52
719,782	0,14
719,966	6,69
720,149	-17,89
720,332	21,03
720,515	-34,68
720,699	1,77
720,882	-21,16
721,065	18,57
721,248	5,05
721,431	33,72
721,615	-6,42
721,798	14,06
721,981	-7,65
722,164	9,56
722,347	-3,14
722,53	16,52
722,713	-21,57
722,896	7,1
723,079	-4,37
723,262	0,14
723,445	6,28
723,628	1,37
723,811	-17,07
723,994	-5,6
724,177	0,14
724,36	0,96
724,543	0,55
724,726	-6,01
724,909	23,48
725,091	3,41
725,274	5,87
725,457	21,44
725,64	23,48
725,823	3,41
726,006	-3,14
726,188	9,97
726,371	19,39
726,554	-6,01
726,737	-1,91
726,919	12,83
727,102	-1,91
727,285	16,93
727,467	25,12
727,65	-28,13
727,833	-11,74
728,015	-8,46
728,198	-19,11
728,38	-16,25
728,563	9,56
728,746	18,16
728,928	26,76
729,111	3,41
729,293	13,65
729,476	2,59
729,658	-22,39
729,841	-12,97
730,023	0,55
730,205	8,74
730,388	-29,76
730,57	0,55
730,753	19,8
730,935	27,58
731,117	-3,14
731,3	-2,32
731,482	14,47
731,664	23,07
731,847	-4,37
732,029	35,77
732,211	3,41
732,394	-4,78
732,576	3,41
732,758	12,42
732,94	7,92
733,122	15,29
733,305	17,75
733,487	-12,56
733,669	10,38
733,851	11,61
734,033	-9,69
734,215	31,27
734,397	18,98
734,58	-1,5
734,762	3,82
734,944	-18,7
735,126	5,05
735,308	-2,73
735,49	19,39
735,672	6,69
735,854	-9,28
736,036	-10,51
736,218	-7,24
736,399	16,52
736,581	-10,1
736,763	-6,83
736,945	7,1
737,127	16,52
737,309	14,88
737,491	28,4
737,672	-12,56
737,854	29,22
738,036	-14,2
738,218	5,87
738,4	-4,37
738,581	15,7
738,763	-2,32
738,945	4,64
739,127	-19,11
739,308	-0,68
739,49	-24,85
739,672	14,47
739,853	5,87
740,035	-7,65
740,216	3
740,398	-13,79
740,58	-28,54
740,761	-7,24
740,943	-7,24
741,124	9,15
741,306	-11,74
741,487	-11,33
741,669	-5,6
741,85	7,51
742,032	4,23
742,213	7,1
742,394	-8,87
742,576	-0,27
742,757	-22,39
742,939	28,4
743,12	21,03
743,301	14,47
743,483	-6,83
743,664	4,64
743,845	-7,65
744,027	-0,68
744,208	-15,43
744,389	0,55
744,57	-34,68
744,752	-15,43
744,933	-1,5
745,114	17,34
745,295	17,75
745,476	-1,91
745,657	18,57
745,839	6,69
746,02	17,75
746,201	25,94
746,382	2,18
746,563	12,01
746,744	8,33
746,925	-7,24
747,106	-7,24
747,287	-15,43
747,468	26,76
747,649	-9,69
747,83	-22,39
748,011	-10,1
748,192	-3,14
748,373	10,38
748,554	-15,43
748,735	12,42
748,915	-2,32
749,096	26,76
749,277	28,81
749,458	29,22
749,639	0,55
749,82	0,96
750	-24,85
750,181	9,15
750,362	7,1
750,543	-1,09
750,723	-1,5
750,904	-21,98
751,085	13,65
751,265	-21,98
751,446	-10,92
751,627	16,52
751,807	-12,56
751,988	-10,92
752,169	10,79
752,349	2,59
752,53	32,08
752,71	-10,51
752,891	39,05
753,071	-6,01
753,252	11,2
753,432	18,16
753,613	-3,96
753,793	-10,1
753,974	-2,32
754,154	12,42
754,334	-6,83
754,515	6,28
754,695	8,33
754,876	8,74
755,056	7,1
755,236	-19,93
755,417	-25,67
755,597	16,93
755,777	13,65
755,957	-21,16
756,138	-26,08
756,318	12,01
756,498	2,18
756,678	5,46
756,859	41,51
757,039	26,35
757,219	37,41
757,399	12,42
757,579	-4,78
757,759	-18,3
757,939	-29,76
758,119	4,23
758,3	-3,14
758,48	-2,32
758,66	-2,32
758,84	18,98
759,02	8,33
759,2	-34,68
759,38	2,59
759,56	4,64
759,74	-19,93
759,919	-1,09
760,099	-5,6
760,279	25,53
760,459	26,35
760,639	-10,92
760,819	-3,55
760,999	-19,93
761,178	30,04
761,358	42,32
761,538	32,49
761,718	49,7
761,898	50,52
762,077	49,7
762,257	47,24
762,437	22,66
762,616	-7,65
762,796	19,39
762,976	-0,27
763,155	18,57
763,335	9,15
763,515	-15,43
763,694	0,55
763,874	13,24
764,053	-15,02
764,233	10,79
764,413	3,82
764,592	-7,65
764,772	61,17
764,951	11,2
765,131	-1,09
765,31	9,97
765,489	-31,4
765,669	7,51
765,848	-6,83
766,028	3,41
766,207	5,46
766,386	-6,42
766,566	3,82
766,745	-24,85
766,924	18,16
767,104	1,77
767,283	12,83
767,462	5,87
767,642	14,88
767,821	-14,2
768	-10,1
768,179	14,47
768,358	-3,55
768,538	14,47
768,717	-2,73
768,896	-6,83
769,075	1,37
769,254	16,11
769,433	-16,66
769,612	29,63
769,791	-15,43
769,97	45,6
770,149	15,7
770,328	18,57
770,507	37
770,686	22,66
770,865	-1,91
771,044	27,17
771,223	34,54
771,402	-15,84
771,581	-12,97
771,76	17,75
771,939	-6,83
772,118	-4,37
772,297	17,75
772,475	-17,07
772,654	-10,1
772,833	-17,48
773,012	16,11
773,191	-3,96
773,369	13,24
773,548	29,22
773,727	31,27
773,906	17,34
774,084	22,25
774,263	14,06
774,442	-10,51
774,62	-5,6
774,799	-8,06
774,977	9,56
775,156	0,14
775,335	25,12
775,513	-21,16
775,692	11,61
775,87	-15,84
776,049	-9,28
776,227	-3,96
776,406	16,11
776,584	2,18
776,763	-5,19
776,941	7,51
777,119	11,2
777,298	-8,06
777,476	-1,09
777,655	-10,1
777,833	-9,28
778,011	-17,48
778,19	-1,09
778,368	10,38
778,546	-6,83
778,725	38,23
778,903	3,41
779,081	0,55
779,259	7,92
779,437	17,75
779,616	25,12
779,794	-21,16
779,972	18,57
780,15	-6,01
780,328	-4,37
780,506	1,37
780,685	2,18
780,863	-1,91
781,041	1,37
781,219	7,1
781,397	24,71
781,575	-34,68
781,753	14,06
781,931	7,1
782,109	7,1
782,287	8,33
782,465	13,65
782,643	5,87
782,82	7,1
782,998	7,51
783,176	22,66
783,354	12,01
783,532	23,07
783,71	-5,19
783,888	3,82
784,065	12,01
784,243	5,46
784,421	7,92
784,599	15,7
784,776	-21,98
784,954	5,87
785,132	3,82
785,31	3
785,487	-0,27
785,665	16,93
785,842	-12,56
786,02	16,52
786,198	-11,33
786,375	5,05
786,553	34,95
786,73	13,65
786,908	-12,97
787,085	1,37
787,263	-11,74
787,44	-1,91
787,618	32,49
787,795	-15,43
787,973	-17,48
788,15	-12,56
788,328	0,96
788,505	20,21
788,682	-1,09
788,86	29,63
789,037	-6,83
789,215	-14,61
789,392	8,33
789,569	-17,07
789,746	-3,55
789,924	11,61
790,101	29,22
790,278	17,34
790,455	-5,19
790,633	28,4
790,81	-1,91
790,987	11,61
791,164	9,56
791,341	18,16
791,518	17,34
791,695	16,52
791,873	-19,11
792,05	-25,67
792,227	0,96
792,404	29,63
792,581	7,1
792,758	15,7
792,935	25,12
793,112	26,35
793,289	8,74
793,466	-6,01
793,643	10,79
793,82	30,04
793,996	38,64
794,173	12,42
794,35	2,59
794,527	12,01
794,704	-15,02
794,881	22,25
795,057	12,01
795,234	14,06
795,411	9,15
795,588	-12,15
795,765	3,41
795,941	-21,57
796,118	9,56
796,295	0,96
796,471	-33,04
796,648	-8,46
796,825	13,24
797,001	9,15
797,178	13,24
797,354	26,76
797,531	-3,96
797,708	-2,32
797,884	8,33
798,061	-14,2
798,237	-12,56
798,414	52,15
798,59	-14,61
798,767	0,14
798,943	12,42
799,119	-10,92
799,296	23,07
799,472	4,23
799,649	-3,96
799,825	38,23
800,001	-12,15
800,178	6,69
800,354	-0,27
800,53	25,12
800,707	18,57
800,883	9,97
801,059	-8,87
801,235	26,35
801,411	-10,51
801,588	-4,37
801,764	19,8
801,94	-11,33
802,116	0,14
802,292	3
802,468	-4,37
802,645	12,01
802,821	12,01
802,997	15,29
803,173	-35,91
803,349	-18,3
803,525	12,42
803,701	-14,61
803,877	-7,24
804,053	-3,14
804,229	-5,6
804,405	25,12
804,581	-8,06
804,756	-19,52
804,932	15,29
805,108	3,82
805,284	18,98
805,46	12,42
805,636	-4,37
805,812	-4,78
805,987	-4,78
806,163	0,96
806,339	3,82
806,515	22,25
806,69	25,94
806,866	7,92
807,042	-10,92
807,217	13,24
807,393	9,15
807,569	-21,57
807,744	15,29
807,92	38,64
808,096	43,96
808,271	43,96
808,447	-9,28
808,622	3
808,798	25,12
808,973	28,4
809,149	-6,42
809,324	37,82
809,5	27,99
809,675	36,59
809,851	13,24
810,026	14,47
810,201	16,11
810,377	13,24
810,552	6,69
810,728	18,98
810,903	-1,09
811,078	21,03
811,253	9,15
811,429	9,97
811,604	1,77
811,779	-15,02
811,955	-16,66
812,13	10,38
812,305	-26,08
812,48	4,23
812,655	-10,51
812,83	-7,65
813,006	22,66
813,181	-0,27
813,356	-12,56
813,531	27,58
813,706	-6,01
813,881	-20,75
814,056	-13,38
814,231	17,34
814,406	4,23
814,581	-13,79
814,756	7,1
814,931	17,75
815,106	1,77
815,281	3,82
815,456	-17,48
815,631	1,77
815,805	7,1
815,98	22,25
816,155	45,19
816,33	39,87
816,505	46,01
816,68	50,52
816,854	9,56
817,029	49,7
817,204	32,49
817,379	47,65
817,553	44,37
817,728	40,69
817,903	-6,83
818,077	56,25
818,252	10,38
818,427	0,14
818,601	29,22
818,776	19,8
818,95	-25,26
819,125	-19,52
819,299	25,94
819,474	-2,73
819,648	18,98
819,823	-4,78
819,997	-15,43
820,172	-1,5
820,346	6,69
820,521	-3,55
820,695	-0,68
820,87	8,33
821,044	11,61
821,218	11,2
821,393	47,65
821,567	-22,8
821,741	16,93
821,916	-22,39
822,09	-1,09
822,264	20,62
822,438	12,42
822,613	-14,61
822,787	6,28
822,961	12,01
823,135	5,87
823,309	24,3
823,483	-6,83
823,658	-8,46
823,832	6,69
824,006	14,47
824,18	5,87
824,354	37
824,528	-22,8
824,702	18,98
824,876	-15,43
825,05	-7,24
825,224	4,64
825,398	14,88
825,572	7,92
825,746	-16,25
825,92	-8,87
826,093	-11,33
826,267	-17,48
826,441	8,74
826,615	18,57
826,789	11,61
826,963	23,89
827,136	-13,38
827,31	-18,3
827,484	4,23
827,658	21,85
827,831	-3,14
828,005	10,79
828,179	25,94
828,353	19,8
828,526	-26,08
828,7	-31,81
828,873	0,96
829,047	8,33
829,221	3,82
829,394	6,28
829,568	12,83
829,741	-5,6
829,915	6,69
830,088	-12,56
830,262	26,35
830,435	18,16
830,609	27,17
830,782	3
830,956	13,65
831,129	-15,43
831,302	-24,44
831,476	-21,16
831,649	-13,38
831,822	18,57
831,996	41,92
832,169	6,69
832,342	-4,78
832,516	15,29
832,689	-7,65
832,862	10,38
833,035	4,64
833,209	-1,09
833,382	-33,45
833,555	-7,24
833,728	-9,69
833,901	8,74
834,074	21,44
834,247	2,59
834,42	-23,62
834,594	8,33
834,767	20,21
834,94	7,1
835,113	15,29
835,286	0,14
835,459	7,51
835,632	-20,34
835,805	-6,01
835,977	3
836,15	25,12
836,323	-13,38
836,496	24,71
836,669	-19,11
836,842	26,35
837,015	30,45
837,188	-6,83
837,36	-18,3
837,533	31,27
837,706	-0,68
837,879	14,06
838,051	-11,33
838,224	7,51
838,397	7,1
838,569	21,03
838,742	0,14
838,915	-1,5
839,087	10,79
839,26	27,17
839,433	22,66
839,605	5,87
839,778	12,42
839,95	34,13
840,123	7,51
840,295	20,21
840,468	-19,11
840,64	21,85
840,813	5,87
840,985	14,88
841,158	5,46
841,33	12,42
841,502	-9,28
841,675	13,65
841,847	9,56
842,019	7,51
842,192	6,69
842,364	12,83
842,536	18,16
842,709	-4,78
842,881	-8,06
843,053	15,29
843,225	-3,96
843,398	17,34
843,57	23,07
843,742	24,71
843,914	3,82
844,086	6,69
844,258	-5,19
844,43	-1,5
844,602	-4,37
844,775	-3,55
844,947	0,96
845,119	11,61
845,291	17,75
845,463	1,77
845,635	26,76
845,807	-12,15
845,979	-0,68
846,15	-21,16
846,322	13,24
846,494	8,33
846,666	26,35
846,838	14,06
847,01	-10,1
847,182	11,61
847,354	5,05
847,525	38,23
847,697	8,33
847,869	-14,61
848,041	23,07
848,212	5,87
848,384	15,29
848,556	6,69
848,727	1,77
848,899	26,35
849,071	-1,91
849,242	45,19
849,414	32,08
849,585	-21,16
849,757	23,89
849,929	9,15
850,1	-3,55
850,272	33,31
850,443	18,57
850,615	12,83
850,786	16,11
850,958	14,47
851,129	1,77
851,3	27,17
851,472	-8,46
851,643	-1,09
851,815	25,53
851,986	-0,68
852,157	14,47
852,329	7,51
852,5	18,98
852,671	0,14
852,842	-10,51
853,014	-11,74
853,185	24,71
853,356	-0,27
853,527	3,41
853,698	-20,75
853,87	1,37
854,041	6,69
854,212	-30,17
854,383	-3,14
854,554	-1,09
854,725	46,01
854,896	14,06
855,067	0,96
855,238	-0,68
855,409	-2,73
855,58	-9,28
855,751	14,47
855,922	7,51
856,093	3,41
856,264	-24,85
856,435	-8,87
856,606	30,45
856,777	-2,32
856,948	6,28
857,118	15,29
857,289	0,96
857,46	26,76
857,631	-30,99
857,802	-4,37
857,972	-3,14
858,143	11,61
858,314	-48,61
858,484	11,61
858,655	5,87
858,826	3,82
858,996	11,2
859,167	14,88
859,338	-6,83
859,508	-1,91
859,679	6,69
859,849	-17,48
860,02	-22,39
860,19	4,64
860,361	22,25
860,531	14,06
860,702	41,1
860,872	9,15
861,043	-19,11
861,213	9,15
861,384	-5,19
861,554	-0,68
861,724	-24,85
861,895	-1,91
862,065	-8,06
862,235	25,53
862,406	23,89
862,576	0,14
862,746	-29,35
862,916	32,08
863,087	-3,14
863,257	4,64
863,427	-12,56
863,597	37,41
863,767	-30,17
863,937	-12,15
864,108	-21,16
864,278	21,85
864,448	5,87
864,618	3
864,788	-17,48
864,958	16,93
865,128	12,01
865,298	21,85
865,468	-5,6
865,638	-5,6
865,808	-15,43
865,978	26,76
866,148	-7,65
866,318	11,2
866,487	13,65
866,657	14,88
866,827	8,33
866,997	29,63
867,167	14,06
867,337	9,56
867,506	1,77
867,676	-1,91
867,846	-8,87
868,016	22,66
868,185	11,61
868,355	-14,61
868,525	-6,01
868,694	-2,73
868,864	-3,55
869,034	1,37
869,203	6,69
869,373	1,37
869,542	-21,16
869,712	-19,11
869,881	-20,34
870,051	-12,56
870,22	-19,93
870,39	-6,01
870,559	-2,73
870,729	-28,94
870,898	-15,02
871,068	14,88
871,237	22,66
871,406	3,82
871,576	18,57
871,745	-1,09
871,914	-1,09
872,084	-7,24
872,253	-28,54
872,422	3
872,591	-8,46
872,761	7,92
872,93	34,54
873,099	-16,66
873,268	-17,48
873,437	-7,24
873,607	9,97
873,776	49,29
873,945	-21,98
874,114	-27,72
874,283	-36,73
874,452	8,74
874,621	-6,01
874,79	-1,5
874,959	-32,63
875,128	2,18
875,297	1,37
875,466	0,14
875,635	11,61
875,804	-26,49
875,973	-12,15
876,142	0,55
876,31	8,33
876,479	-9,28
876,648	4,64
876,817	-9,28
876,986	-6,83
877,155	0,14
877,323	-22,39
877,492	4,23
877,661	5,87
877,829	-2,32
877,998	-9,28
878,167	7,51
878,335	-4,78
878,504	-8,06
878,673	7,51
878,841	-11,33
879,01	-7,65
879,178	8,74
879,347	15,29
879,515	25,53
879,684	9,97
879,852	-7,24
880,021	-1,91
880,189	-11,74
880,358	-12,15
880,526	3,41
880,695	1,77
880,863	-14,61
881,031	-8,06
881,2	12,83
881,368	21,85
881,536	16,52
881,705	20,62
881,873	39,05
882,041	1,37
882,21	19,39
882,378	-11,33
882,546	6,69
882,714	-4,78
882,882	7,51
883,05	14,88
883,219	6,69
883,387	6,69
883,555	9,97
883,723	-3,55
883,891	-14,61
884,059	-3,55
884,227	18,98
884,395	11,2
884,563	0,96
884,731	-5,6
884,899	3,82
885,067	-8,06
885,235	-11,33
885,403	21,44
885,571	-3,96
885,739	10,38
