Data from USB4F035431__16__14-43-55-516.txt Node

Date: Wed Feb 12 14:43:55 CET 2025
User: Versuch 234
Spectrometer: USB4F03543
Trigger mode: 4
Integration Time (sec): 1,000000E-1
Scans to average: 40
Electric dark correction enabled: true
Nonlinearity correction enabled: false
Boxcar width: 0
XAxis mode: Wavelengths
Number of Pixels in Spectrum: 3648
>>>>>Begin Spectral Data<<<<<
179,969	-174,91
180,181	-174,91
180,394	-174,91
180,606	-182,79
180,819	-174,14
181,031	27,07
181,243	70,64
181,456	-54,9
181,668	41,87
181,88	32,91
182,093	-19,57
182,305	-63,14
182,518	-25,77
182,73	40,49
182,942	-7,18
183,155	-41,48
183,367	-0,93
183,579	35,52
183,791	270,68
184,004	314,5
184,216	325,31
184,428	318,65
184,641	330,22
184,853	286,91
185,065	299,09
185,277	343,12
185,49	353,36
185,702	276,51
185,914	257,67
186,126	314,56
186,338	347,27
186,551	319,52
186,763	343,59
186,975	296,28
187,187	332,17
187,399	293,82
187,612	326,89
187,824	297,35
188,036	325,97
188,248	358,74
188,46	353,83
188,672	353,36
188,885	297,56
189,097	383,47
189,309	295,25
189,521	319,11
189,733	349,73
189,945	329,66
190,157	350,96
190,369	290,54
190,581	305,13
190,794	358,79
191,006	280,61
191,218	312
191,43	341,38
191,642	275,95
191,854	328,53
192,066	368,01
192,278	353,11
192,49	277,79
192,702	304,62
192,914	342,87
193,126	352,95
193,338	336,67
193,55	337,34
193,762	370,67
193,974	280,51
194,186	312,71
194,398	304,32
194,61	328,89
194,822	373,38
195,034	368,52
195,246	391,61
195,457	371,34
195,669	476,19
195,881	438,35
196,093	412,19
196,305	440,15
196,517	362,38
196,729	453,2
196,941	347,63
197,153	423,51
197,365	407,43
197,576	303,34
197,788	282,4
198	364,22
198,212	396,93
198,424	358,84
198,636	290,34
198,847	296,74
199,059	352,49
199,271	313,02
199,483	341,59
199,695	344,2
199,906	378,5
200,118	296,74
200,33	392,07
200,542	690,61
200,753	322,08
200,965	323,31
201,177	361,61
201,389	380,96
201,6	296,12
201,812	336,01
202,024	322,08
202,235	295,97
202,447	368,06
202,659	381,68
202,871	329,97
203,082	322,7
203,294	306,31
203,506	355,72
203,717	341,74
203,929	364,83
204,141	308
204,352	392,17
204,564	291,21
204,775	322,08
204,987	400,42
205,199	355,21
205,41	334,88
205,622	376,25
205,833	309,69
206,045	359,2
206,257	323,62
206,468	304,67
206,68	292,39
206,891	308,41
207,103	293,41
207,314	266,43
207,526	346,3
207,737	303,75
207,949	341,18
208,16	350,24
208,372	358,18
208,583	340,36
208,795	340,36
209,006	339,8
209,218	370,98
209,429	296,99
209,641	331,25
209,852	323,46
210,064	368,47
210,275	319,73
210,487	370,46
210,698	391,35
210,909	345,07
211,121	345,02
211,332	350,45
211,544	377,68
211,755	392,48
211,966	395,3
212,178	321,11
212,389	468,31
212,6	337,9
212,812	441,73
213,023	367,34
213,234	377,22
213,446	373,59
213,657	290,08
213,868	387,05
214,08	424,94
214,291	361,97
214,502	354,03
214,714	277,23
214,925	333,29
215,136	339,59
215,347	334,73
215,559	304,98
215,77	305,24
215,981	395,6
216,192	305,54
216,404	339,08
216,615	369,9
216,826	365,5
217,037	333,35
217,249	378,61
217,46	424,17
217,671	341,08
217,882	332,37
218,093	348,71
218,304	343,64
218,516	368,42
218,727	315,43
218,938	317,22
219,149	454,33
219,36	370,26
219,571	363,4
219,782	330,68
219,993	408,97
220,205	322,8
220,416	393,81
220,627	356,95
220,838	402,62
221,049	487,51
221,26	400,98
221,471	341,79
221,682	383,98
221,893	413,63
222,104	290,49
222,315	286,09
222,526	302,93
222,737	350,6
222,948	318,14
223,159	366,11
223,37	369,75
223,581	335,5
223,792	311,38
224,003	336,83
224,214	319,16
224,425	357,72
224,636	298,63
224,847	388,49
225,058	356,59
225,269	364,83
225,48	332,94
225,691	319,32
225,902	382,91
226,112	342,31
226,323	313,89
226,534	364,42
226,745	341,59
226,956	348,19
227,167	340,67
227,378	378,5
227,589	353,26
227,799	461,75
228,01	386,29
228,221	347,02
228,432	407,07
228,643	379,42
228,853	435,33
229,064	444,65
229,275	506,6
229,486	500,51
229,697	521,6
229,907	518,43
230,118	536,66
230,329	450,64
230,54	422,02
230,75	424,99
230,961	439,48
231,172	351,78
231,383	328,58
231,593	338,16
231,804	340,1
232,015	385,36
232,225	389,82
232,436	379,73
232,647	425,4
232,857	435,74
233,068	386,75
233,279	444,5
233,489	396,58
233,7	421,31
233,91	410,3
234,121	417,36
234,332	437,69
234,542	454,69
234,753	445,06
234,964	487,51
235,174	468,77
235,385	536,5
235,595	504,04
235,806	556,52
236,016	482,34
236,227	492,73
236,437	476,65
236,648	528,41
236,858	539,42
237,069	507,06
237,279	528,31
237,49	535,74
237,7	567,79
237,911	558,67
238,121	526,98
238,332	547,46
238,542	611,15
238,753	582,99
238,963	561,75
239,174	612,53
239,384	602,6
239,595	604,34
239,805	584,12
240,015	605,11
240,226	578,38
240,436	621,6
240,647	623,85
240,857	591,54
241,067	630,51
241,278	759,89
241,488	591,34
241,698	645,25
241,909	583,86
242,119	608,08
242,329	612,38
242,54	645,51
242,75	599,84
242,96	584,27
243,171	625,13
243,381	654,42
243,591	603,73
243,801	704,49
244,012	723,48
244,222	655,13
244,432	593,9
244,642	655,18
244,853	642,43
245,063	661,33
245,273	705,21
245,483	678,27
245,694	665,27
245,904	686,01
246,114	733,36
246,324	661,53
246,534	718,11
246,744	682,22
246,955	636,85
247,165	781,39
247,375	799,31
247,585	710,79
247,795	736,9
248,005	763,37
248,215	806,12
248,425	792,24
248,636	902,37
248,846	734,34
249,056	765,06
249,266	743,2
249,476	781,18
249,686	795,37
249,896	736,44
250,106	768,64
250,316	772,07
250,526	885,78
250,736	745,65
250,946	859,62
251,156	840,52
251,366	798,18
251,576	832,54
251,786	858,65
251,996	765,62
252,206	750,67
252,416	798,59
252,626	729,27
252,836	733,88
253,046	790,2
253,256	834,02
253,466	793,42
253,676	797,21
253,885	833,92
254,095	781,18
254,305	802,74
254,515	810,52
254,725	775,76
254,935	762,29
255,145	805,56
255,355	791,02
255,564	749,9
255,774	747,44
255,984	807,65
256,194	775,6
256,404	754,31
256,614	790,35
256,823	830,69
257,033	780,21
257,243	819,17
257,453	787,33
257,662	782,26
257,872	818,1
258,082	778,57
258,292	728,86
258,501	873,5
258,711	929,2
258,921	833,82
259,131	719,03
259,34	733,21
259,55	768,79
259,76	735,05
259,969	739,87
260,179	721,54
260,389	740,64
260,598	818,92
260,808	807,76
261,018	742,63
261,227	817,54
261,437	730,45
261,647	800,54
261,856	714,22
262,066	762,75
262,275	821,33
262,485	736,03
262,694	777,29
262,904	751,08
263,114	791,32
263,323	730,14
263,533	739,71
263,742	732,55
263,952	746,83
264,161	683,96
264,371	729,93
264,58	741,45
264,79	707,56
264,999	752,15
265,209	769,36
265,418	751,54
265,628	730,24
265,837	734,95
266,047	734,59
266,256	791,12
266,466	686,36
266,675	701,72
266,884	700,29
267,094	726,3
267,303	769,1
267,513	728,86
267,722	778,98
267,931	729,37
268,141	695,37
268,35	727,17
268,559	757,63
268,769	679,3
268,978	648,17
269,187	715,91
269,397	694,5
269,606	660,92
269,815	656,57
270,025	714,88
270,234	703,82
270,443	636,09
270,653	668,75
270,862	691,02
271,071	692,15
271,28	658,72
271,49	690,72
271,699	651,8
271,908	713,76
272,117	685,14
272,327	674,38
272,536	669,93
272,745	664,25
272,954	636,39
273,163	681,76
273,372	717,24
273,582	627,18
273,791	662,1
274	642,49
274,209	635,01
274,418	703,36
274,627	707,56
274,836	619,14
275,046	633,94
275,255	626,36
275,464	574,24
275,673	567,12
275,882	599,89
276,091	515,46
276,3	553,3
276,509	503,74
276,718	483,41
276,927	434,98
277,136	477,57
277,345	451,26
277,554	464,62
277,763	490,17
277,972	464,16
278,181	462,83
278,39	408,25
278,599	442,45
278,808	427,76
279,017	494,47
279,226	410,81
279,435	466,46
279,644	472,71
279,853	504,3
280,062	555,5
280,271	411,12
280,48	431,14
280,688	427,14
280,897	484,54
281,106	403,18
281,315	392,33
281,524	431,85
281,733	444,45
281,942	438,15
282,151	467,59
282,359	493,24
282,568	423
282,777	499,08
282,986	502,2
283,195	583,1
283,403	655,39
283,612	713,19
283,821	792,5
284,03	794,29
284,238	818,56
284,447	772,69
284,656	611,61
284,865	592,82
285,073	459,86
285,282	445,93
285,491	432,36
285,699	370,98
285,908	418,44
286,117	414,14
286,325	426,68
286,534	496,52
286,743	441,12
286,951	424,79
287,16	465,18
287,369	407,12
287,577	434,36
287,786	406,92
287,995	426,99
288,203	387,21
288,412	449,21
288,62	418,75
288,829	393,86
289,037	419,56
289,246	420,54
289,455	430,52
289,663	461,19
289,872	487,4
290,08	448,39
290,289	508,4
290,497	406,46
290,706	450,95
290,914	391,41
291,123	418,03
291,331	451,05
291,54	549,71
291,748	554,78
291,957	473,84
292,165	439,02
292,373	401,08
292,582	420,33
292,79	459,76
292,999	464,57
293,207	450,08
293,415	414,19
293,624	380,09
293,832	433,8
294,041	460,37
294,249	424,22
294,457	409,48
294,666	437,89
294,874	379,27
295,082	471,94
295,291	471,63
295,499	442,5
295,707	467,13
295,915	458,22
296,124	502,15
296,332	471,12
296,54	482,85
296,749	524,57
296,957	485,92
297,165	466,77
297,373	434,26
297,581	446,09
297,79	459,96
297,998	415,72
298,206	425,15
298,414	442,45
298,622	474,5
298,831	488,73
299,039	428,99
299,247	492,22
299,455	495,6
299,663	519,1
299,871	470,05
300,08	443,01
300,288	458,94
300,496	459,81
300,704	446,24
300,912	466,21
301,12	468,82
301,328	451
301,536	450,85
301,744	413,93
301,952	497,59
302,16	413,83
302,368	455,87
302,576	499,49
302,784	534,66
302,992	448,44
303,2	539,32
303,408	606,7
303,616	674,38
303,824	862,85
304,032	934,27
304,24	982,3
304,448	906,11
304,656	784,97
304,864	776,58
305,072	639,93
305,28	580,79
305,488	509,83
305,696	513,52
305,904	504,04
306,111	408,4
306,319	466,57
306,527	506,3
306,735	515,05
306,943	499,44
307,151	481,16
307,359	447,31
307,566	542,95
307,774	531,13
307,982	522,32
308,19	472,35
308,398	509,16
308,605	511,11
308,813	484,9
309,021	535,63
309,229	551,35
309,436	490,58
309,644	521,96
309,852	524,22
310,06	578,9
310,267	455,66
310,475	480,8
310,683	496,72
310,89	494,52
311,098	537,12
311,306	480,95
311,513	531,84
311,721	439,74
311,929	504,25
312,136	474,4
312,344	472,91
312,552	533,53
312,759	455,66
312,967	527,9
313,174	538,55
313,382	507,47
313,589	530,21
313,797	566,51
314,005	520,32
314,212	519,76
314,42	437,79
314,627	474,09
314,835	475,73
315,042	497,34
315,25	431,55
315,457	459,4
315,665	426,17
315,872	552,07
316,08	545,92
316,287	480,8
316,495	803,2
316,702	466,1
316,909	459,55
317,117	551,15
317,324	511,11
317,532	568,3
317,739	487,66
317,946	496,11
318,154	479,47
318,361	484,23
318,569	549,51
318,776	496,26
318,983	478,44
319,191	550,79
319,398	508,65
319,605	526,26
319,813	558,11
320,02	468,41
320,227	628,82
320,434	590,42
320,642	561,64
320,849	550,84
321,056	588,06
321,264	596,82
321,471	586,94
321,678	591,03
321,885	563,84
322,092	612,59
322,3	584,78
322,507	536,61
322,714	597,53
322,921	544,54
323,128	537,99
323,336	559,08
323,543	613,97
323,75	620,01
323,957	598,51
324,164	601,22
324,371	608,29
324,578	512,64
324,786	634,6
324,993	566,46
325,2	602,09
325,407	503,48
325,614	587,81
325,821	657,33
326,028	712,94
326,235	645,3
326,442	608,64
326,649	581,3
326,856	660,1
327,063	610,13
327,27	632,45
327,477	677,81
327,684	676,69
327,891	758,45
328,098	1014,86
328,305	1639,85
328,512	2634,19
328,719	5299,72
328,926	9481,31
329,133	17519,64
329,34	29479,01
329,546	47295,11
329,753	59094,33
329,96	64151,53
330,167	63244,74
330,374	60780,22
330,581	44243,79
330,788	26867,7
330,995	16706,19
331,201	9880,57
331,408	5104,96
331,615	2799,25
331,822	1580,51
332,029	1175,67
332,235	959
332,442	842,06
332,649	788,4
332,856	730,24
333,062	723,18
333,269	702,03
333,476	736,8
333,683	700,44
333,889	726,2
334,096	693,58
334,303	739,36
334,509	676,58
334,716	700,19
334,923	697,17
335,129	637,21
335,336	713,5
335,543	663,73
335,749	669,88
335,956	746,68
336,163	624,05
336,369	696,4
336,576	701,21
336,782	706,69
336,989	643
337,196	684,93
337,402	631,53
337,609	642,43
337,815	669,31
338,022	720,72
338,228	708,23
338,435	820,71
338,641	724,35
338,848	790,91
339,054	744,17
339,261	675,3
339,467	659,13
339,674	731,27
339,88	719,59
340,087	702,9
340,293	677,61
340,5	700,96
340,706	734,13
340,912	653,08
341,119	666,45
341,325	685,44
341,532	684,32
341,738	689,9
341,944	754,25
342,151	732,39
342,357	704,49
342,563	761,93
342,77	706,49
342,976	693,53
343,182	824,91
343,389	712,63
343,595	701,37
343,801	692,56
344,007	743,55
344,214	668,5
344,42	722,66
344,626	719,9
344,832	701,52
345,039	736,13
345,245	746,63
345,451	710,84
345,657	764,6
345,864	689,64
346,07	747,75
346,276	768,03
346,482	833,56
346,688	776,37
346,894	710,12
347,1	764,19
347,307	746,32
347,513	804,43
347,719	733,93
347,925	772,02
348,131	687,39
348,337	834,07
348,543	725,07
348,749	724,66
348,955	814,11
349,161	721,95
349,367	766,7
349,573	824,45
349,779	816,87
349,985	774,73
350,191	747,91
350,397	790,4
350,603	812,01
350,809	757,38
351,015	810,32
351,221	758,76
351,427	815,69
351,633	798,7
351,839	821,22
352,045	791,42
352,251	871,19
352,457	814,72
352,663	815,13
352,869	803,46
353,075	808,73
353,28	768,79
353,486	807,55
353,692	804,69
353,898	795,37
354,104	804,17
354,31	882,25
354,515	827,88
354,721	927,97
354,927	925,05
355,133	973,08
355,339	948,25
355,544	962,33
355,75	956,75
355,956	939,49
356,162	938,72
356,367	921,11
356,573	959,61
356,779	896,9
356,984	972,16
357,19	998,58
357,396	1010,61
357,602	1155,3
357,807	1108,04
358,013	1191,39
358,218	1262,46
358,424	1255,39
358,63	1251,19
358,835	1255,24
359,041	1160,98
359,247	1118,69
359,452	1018,7
359,658	990,54
359,863	1022,18
360,069	996,07
360,274	986,49
360,48	1038,26
360,685	951,93
360,891	956,34
361,097	871,91
361,302	893,87
361,508	954,24
361,713	895,46
361,918	992,18
362,124	881,23
362,329	920,45
362,535	928,18
362,74	927,1
362,946	962,28
363,151	951,78
363,357	944
363,562	915,28
363,767	879,13
363,973	973,85
364,178	913,48
364,383	904,88
364,589	946,97
364,794	894,03
365	978,87
365,205	982,4
365,41	939,08
365,615	994,02
365,821	911,38
366,026	988,13
366,231	961
366,437	984,24
366,642	878,26
366,847	999,04
367,052	963,76
367,258	919,88
367,463	919,83
367,668	935,55
367,873	1023,15
368,078	1017,83
368,284	898,02
368,489	941,39
368,694	1005,85
368,899	1002,06
369,104	976,56
369,309	962,33
369,515	925,52
369,72	1003,59
369,925	913,64
370,13	996,02
370,335	1006,67
370,54	943,84
370,745	977,74
370,95	979,43
371,155	1043,63
371,36	983,88
371,565	1003,18
371,77	1008,92
371,975	926,69
372,18	1028,22
372,385	1038,05
372,59	1006,26
372,795	970,57
373	1029,14
373,205	1023,87
373,41	999,65
373,615	954,03
373,82	934,68
374,025	984,86
374,23	939,44
374,435	1009,99
374,64	1032,16
374,845	1028,12
375,05	1004,31
375,254	974,87
375,459	958,49
375,664	984,34
375,869	1005,59
376,074	981,27
376,279	992,54
376,483	1021,77
376,688	972,87
376,893	1062,58
377,098	992,94
377,303	1031,55
377,507	1042,15
377,712	1106,61
377,917	1058,58
378,122	1065,8
378,326	999,91
378,531	979,38
378,736	974,36
378,94	966,94
379,145	986,6
379,35	984,29
379,554	1005,54
379,759	972,72
379,964	1005,23
380,168	948,71
380,373	996,38
380,578	1052,69
380,782	1066,83
380,987	1020,8
381,191	1006,15
381,396	1004,21
381,601	1015,88
381,805	1011,73
382,01	1113,26
382,214	1038
382,419	1031,09
382,623	1052,95
382,828	1044,5
383,032	1004,87
383,237	945,38
383,441	967,81
383,646	1003,59
383,85	929,82
384,055	977,69
384,259	971,8
384,464	927,82
384,668	924,95
384,872	952,65
385,077	952,91
385,281	963,3
385,486	938,37
385,69	1009,74
385,894	1054,33
386,099	1040,97
386,303	1004,82
386,507	1049,72
386,712	1079,68
386,916	985,62
387,12	989,1
387,325	1059,86
387,529	1011,68
387,733	1038,72
387,937	989,57
388,142	974,31
388,346	968,68
388,55	1065,08
388,754	1021,87
388,959	986,34
389,163	1000,98
389,367	990,28
389,571	952,86
389,775	1022,69
389,98	978,46
390,184	983,52
390,388	974
390,592	1005,69
390,796	1012,5
391	1004,67
391,204	1016,09
391,409	1034,77
391,613	1092,89
391,817	1096,06
392,021	1195,85
392,225	1159,04
392,429	1119,92
392,633	1098,31
392,837	1068,87
393,041	1073,79
393,245	1084,8
393,449	1098,11
393,653	1239,26
393,857	1392,04
394,061	1486,2
394,265	1473,55
394,469	1480
394,673	1392,35
394,877	1255,49
395,081	1218,22
395,285	1153,56
395,489	1019,21
395,693	1034,11
395,896	1010,71
396,1	995,81
396,304	1004,87
396,508	920,45
396,712	949,43
396,916	939,6
397,12	989,26
397,323	1019,57
397,527	994,99
397,731	1036,52
397,935	985,11
398,139	965,45
398,342	1018,75
398,546	996,58
398,75	952,24
398,954	997,6
399,157	1034,52
399,361	1048,91
399,565	951,47
399,769	1057,87
399,972	1010,61
400,176	1008,71
400,38	974,05
400,583	985,37
400,787	1029,14
400,991	1028,63
401,194	1018,65
401,398	1033,34
401,601	1019,16
401,805	1036,92
402,009	1039,74
402,212	1054,64
402,416	1195,28
402,619	1085,82
402,823	1239,06
403,026	1322,87
403,23	1557,67
403,433	1884,37
403,637	1919,6
403,841	2016,78
404,044	1967,32
404,247	1772,66
404,451	1583,07
404,654	1427,06
404,858	1317,96
405,061	1220,53
405,265	1138,15
405,468	1151,87
405,672	1065,8
405,875	1098,98
406,078	1070,31
406,282	1066,31
406,485	1045,99
406,689	1137,89
406,892	1168,71
407,095	1073,12
407,299	1094,58
407,502	1154,43
407,705	1139,89
407,909	1204,04
408,112	1276,13
408,315	1377,6
408,518	1471,71
408,722	1398,75
408,925	1394,04
409,128	1399,62
409,331	1356,25
409,535	1345,91
409,738	1262,36
409,941	1312,22
410,144	1148,74
410,347	1254,52
410,551	1182,23
410,754	1117,21
410,957	1136,15
411,16	1102
411,363	1198,46
411,566	1182,38
411,769	1201,43
411,973	1206,04
412,176	1305,93
412,379	1313,91
412,582	1273,93
412,785	1217,66
412,988	1136,51
413,191	1201,12
413,394	1202,25
413,597	1225,34
413,8	1306,74
414,003	1636,72
414,206	1892,26
414,409	2660,71
414,612	3525,21
414,815	4403,22
415,018	4844,25
415,221	5105,62
415,424	4932,88
415,627	4097,82
415,83	3298,24
416,033	2704,48
416,235	2311,79
416,438	2021,28
416,641	1847,51
416,844	1860,87
417,047	1851,66
417,25	1949,14
417,453	2162,39
417,655	2371,94
417,858	2773,45
418,061	3009,12
418,264	3386,3
418,467	4171,24
418,669	5033,64
418,872	5847,35
419,075	6171,23
419,278	6259,04
419,48	5959,63
419,683	5089,96
419,886	3733,64
420,089	3068,51
420,291	2447
420,494	2043,71
420,697	1743,93
420,899	1669,64
421,102	1450,15
421,305	1461,83
421,507	1354,46
421,71	1313,76
421,912	1325,33
422,115	1225,08
422,318	1284,01
422,52	1303,57
422,723	1291,69
422,925	1345,61
423,128	1358,71
423,33	1290,31
423,533	1346,01
423,735	1428,7
423,938	1543,44
424,14	1631,09
424,343	1907,52
424,545	2223,57
424,748	2427,91
424,95	2622,26
425,153	2933,29
425,355	3161,54
425,558	3373,81
425,76	3287,54
425,962	3358,25
426,165	3312,63
426,367	3337,77
426,57	3188,62
426,772	2712,98
426,974	2374,4
427,177	1935,78
427,379	1788,53
427,581	1733,29
427,784	1564,23
427,986	1515,74
428,188	1605,8
428,39	1711,22
428,593	1891,8
428,795	2232,84
428,997	2393,6
429,2	2294,99
429,402	2372,1
429,604	2097,72
429,806	1859,75
430,008	1777,93
430,211	1638,52
430,413	1538,22
430,615	1527,16
430,817	1495
431,019	1487,73
431,221	1562,84
431,423	1503,96
431,626	1668,26
431,828	1873,52
432,03	2172,63
432,232	2532,35
432,434	2754,45
432,636	2815,38
432,838	2655,79
433,04	2531,53
433,242	2301,39
433,444	2108,27
433,646	2093,78
433,848	1950,58
434,05	1858,06
434,252	1655,97
434,454	1582,86
434,656	1526,24
434,858	1517,94
435,06	1452,92
435,262	1482,15
435,464	1427,58
435,666	1510,67
435,868	1496,34
436,07	1451,18
436,271	1420,71
436,473	1455,84
436,675	1528,74
436,877	1467,36
437,079	1499,77
437,281	1480,67
437,482	1555,42
437,684	1554,19
437,886	1581,12
438,088	1627,92
438,29	1616,09
438,491	1591,36
438,693	1523,83
438,895	1536,17
439,097	1583,48
439,298	1487,17
439,5	1425,32
439,702	1407,35
439,903	1429,01
440,105	1470,22
440,307	1538,57
440,508	1482,56
440,71	1475,29
440,912	1531,61
441,113	1465,16
441,315	1528,03
441,517	1507,34
441,718	1553,22
441,92	1523,37
442,121	1558,54
442,323	1500,64
442,524	1496,39
442,726	1535,91
442,928	1459,32
443,129	1450,67
443,331	1455,17
443,532	1463,93
443,734	1412,98
443,935	1529,62
444,136	1434,03
444,338	1533,15
444,539	1550,25
444,741	1581,94
444,942	1543,34
445,144	1566,02
445,345	1597,3
445,546	1511,85
445,748	1496,44
445,949	1473,71
446,151	1438,84
446,352	1469,3
446,553	1619,73
446,755	1462,75
446,956	1521,53
447,157	1531,25
447,359	1566,07
447,56	1596,38
447,761	1639,64
447,962	1796,41
448,164	1913,15
448,365	1957,33
448,566	2093,22
448,767	2025,27
448,969	2162,69
449,17	2063,16
449,371	1992,81
449,572	2135,81
449,773	2157,32
449,974	2251,68
450,176	2229,82
450,377	2204,88
450,578	2131,31
450,779	1930,76
450,98	1829,49
451,181	1873,83
451,382	1833,12
451,583	1802,3
451,784	1761,14
451,986	1718,64
452,187	1685,82
452,388	1657,72
452,589	1677,48
452,79	1744,86
452,991	1801,43
453,192	2092,7
453,393	2414,13
453,594	3361,88
453,795	4431,43
453,995	5860,76
454,196	6803,03
454,397	7395,25
454,598	7099,63
454,799	6102,88
455	4781,64
455,201	3612,86
455,402	2970,87
455,603	2410,34
455,804	2210,26
456,004	2029,88
456,205	1886,06
456,406	1860,67
456,607	1772,76
456,808	1830,51
457,008	1727,96
457,209	1715,31
457,41	1829,03
457,611	1817,76
457,811	2016,37
458,012	1926,1
458,213	1965,73
458,414	2036,28
458,614	2043,71
458,815	2057,07
459,016	2194,64
459,216	2080,67
459,417	2015,39
459,618	1968,44
459,818	1881,46
460,019	1818,69
460,22	1779,42
460,42	1789,09
460,621	1729,6
460,821	1735,9
461,022	1840,34
461,223	1798,77
461,423	1815,36
461,624	1906,65
461,824	1874,6
462,025	1886,63
462,225	1804,96
462,426	1884,43
462,626	1782,85
462,827	1807,11
463,027	1860,11
463,228	1834,76
463,428	1829,9
463,628	1833,69
463,829	1906,49
464,029	1780,08
464,23	1863,69
464,43	1965,12
464,63	2117,13
464,831	2506,85
465,031	3182,43
465,231	3805,22
465,432	4462,66
465,632	4738,27
465,832	4496,1
466,033	4428,82
466,233	3860,87
466,433	3319,13
466,634	2917,93
466,834	2674,94
467,034	2328,22
467,234	2310,97
467,435	2166,23
467,635	2088,76
467,835	1961,58
468,035	2028,5
468,235	1951,45
468,436	2032,65
468,636	2036,44
468,836	2051,8
469,036	2186,45
469,236	2194,23
469,436	2145,39
469,636	2207,13
469,836	2013,4
470,037	2014,27
470,237	2017,59
470,437	2040,48
470,637	2008,79
470,837	1982,73
471,037	2034,54
471,237	1992,25
471,437	1995,07
471,637	1977,3
471,837	1981,81
472,037	1921,14
472,237	1976,17
472,437	1988,77
472,637	2121,63
472,837	2095,37
473,036	2180,15
473,236	2465,74
473,436	2566,25
473,636	2819,37
473,836	2899,4
474,036	3078,55
474,236	2978,3
474,436	2861,82
474,635	2705,71
474,835	2509,41
475,035	2520,83
475,235	2453,1
475,435	2419,76
475,634	2355,61
475,834	2417
476,034	2387,2
476,234	2272,57
476,433	2259,36
476,633	2340,97
476,833	2213,23
477,033	2206,42
477,232	2212,31
477,432	2192,13
477,632	2323,92
477,831	2250,09
478,031	2258,54
478,231	2295,5
478,43	2303,24
478,63	2285,67
478,829	2204,93
479,029	2306,1
479,229	2274,05
479,428	2242,05
479,628	2276,56
479,827	2317,42
480,027	2218,45
480,226	2382,39
480,426	2288,95
480,625	2275,13
480,825	2307,02
481,024	2286,49
481,224	2396,73
481,423	2304,21
481,623	2453,66
481,822	2408,09
482,021	2533,99
482,221	2585,29
482,42	2596,4
482,62	2573,36
482,819	2534,25
483,018	2510,54
483,218	2455,19
483,417	2504,29
483,616	2417,05
483,816	2506,55
484,015	2518,63
484,214	2508,9
484,414	2609,51
484,613	2658,71
484,812	2546,74
485,011	2538,8
485,211	2587,49
485,41	2634,34
485,609	2553,8
485,808	2608,95
486,008	2730,03
486,207	2764,69
486,406	2856,55
486,605	2940,41
486,804	3050,54
487,003	3111,88
487,203	3209,41
487,402	3199,78
487,601	3227,64
487,8	3276,69
487,999	3204,39
488,198	3164,87
488,397	3067,03
488,596	2993,4
488,795	2915,17
488,994	2932,88
489,193	2794,7
489,392	2839,55
489,591	2723,58
489,79	2704,69
489,989	2736,12
490,188	2750,61
490,387	2794,29
490,586	2766,74
490,785	2897,56
490,984	3133,53
491,183	3615,68
491,382	4676,37
491,581	6648,31
491,779	8871,38
491,978	10241,78
492,177	10974,64
492,376	10900,4
492,575	9776,07
492,774	7648,74
492,972	6139,39
493,171	5147,92
493,37	4397,64
493,569	4016
493,768	3667,28
493,966	3472,78
494,165	3424,14
494,364	3440,52
494,563	3325,43
494,761	3275,56
494,96	3201,01
495,159	3279,66
495,357	3343,86
495,556	4138,11
495,755	5713,92
495,953	9267,35
496,152	15069,91
496,35	22606,95
496,549	30945,31
496,748	37639,45
496,946	40076,69
497,145	39072,67
497,343	35170,16
497,542	28928,62
497,74	21887,35
497,939	17487,9
498,137	13812,56
498,336	11090,1
498,534	9077,46
498,733	7922,25
498,931	7007,47
499,13	6248,14
499,328	5582,29
499,527	5232,8
499,725	4505,98
499,924	4151,68
500,122	3698,36
500,32	3499,04
500,519	3282,83
500,717	3061,91
500,915	2935,19
501,114	2921,77
501,312	2916,19
501,51	2887,26
501,709	2912,86
501,907	3001,23
502,105	2913,73
502,304	2993,76
502,502	3003,33
502,7	3025,96
502,898	3019
503,097	3024,99
503,295	3063,95
503,493	3136,55
503,691	3169,78
503,889	3149,81
504,088	3192,92
504,286	3337,41
504,484	3369,77
504,682	3380,42
504,88	3388,56
505,078	3424,7
505,276	3341,81
505,474	3374,17
505,672	3218,11
505,871	3231,43
506,069	3233,06
506,267	3103,48
506,465	3160,26
506,663	3073,68
506,861	3047,88
507,059	3128,11
507,257	3125,96
507,455	3087,86
507,653	3115,46
507,851	3108,8
508,049	3004,31
508,246	3077,88
508,444	3083
508,642	3063,34
508,84	3088,73
509,038	3076,75
509,236	3183,66
509,434	3105,07
509,632	3240,59
509,829	3236,65
510,027	3226,1
510,225	3295,07
510,423	3282,27
510,621	3274,59
510,818	3325,22
511,016	3249,35
511,214	3167,07
511,412	3218,11
511,609	3068,31
511,807	3174,29
512,005	3115,82
512,203	3263,94
512,4	3317,18
512,598	3625,2
512,796	4241,59
512,993	5435,35
513,191	7146,78
513,389	9299,35
513,586	11700,14
513,784	13200,58
513,981	13652,87
514,179	13254,29
514,377	12061,91
514,574	10413,29
514,772	8724,13
514,969	7675,36
515,167	6617,23
515,364	5965,82
515,562	5278,93
515,759	5014,59
515,957	4581,34
516,154	4421,35
516,352	4343,01
516,549	4170,68
516,746	4123,42
516,944	4260,89
517,141	4247,63
517,339	4247,88
517,536	4312,86
517,733	4154,39
517,931	4029,06
518,128	3893,94
518,325	3760,93
518,523	3704,25
518,72	3612,04
518,917	3607,48
519,115	3581,01
519,312	3586,54
519,509	3608,61
519,707	3647,06
519,904	3734,15
520,101	3923,33
520,298	4106,42
520,495	4245,07
520,693	4219,26
520,89	4377,93
521,087	4224,38
521,284	4258,28
521,481	4001,67
521,678	3972,94
521,876	3894,51
522,073	3860,87
522,27	3818,12
522,467	3827,64
522,664	3802,09
522,861	3850,22
523,058	3885,04
523,255	3819,81
523,452	3983,34
523,649	3976,89
523,846	4029,57
524,043	4076,72
524,24	4087,22
524,437	3975,66
524,634	3897,37
524,831	3838,65
525,028	3785,04
525,225	3697,03
525,422	3700,51
525,619	3661,24
525,816	3650,54
526,013	3792,11
526,209	3750,94
526,406	3737,73
526,603	3804,96
526,8	3799,58
526,997	3857,59
527,194	3908,23
527,39	3895,79
527,587	3805,88
527,784	3799,43
527,981	3771,68
528,177	3744,85
528,374	3741,17
528,571	3784,28
528,768	3696,62
528,964	3734,1
529,161	3765,33
529,358	3842,33
529,554	3779,72
529,751	3801,79
529,948	3783,1
530,144	3900,19
530,341	3837,68
530,537	3878,69
530,734	3911,76
530,931	3894,66
531,127	3863,48
531,324	3909,56
531,52	3865,07
531,717	3850,17
531,913	3900,5
532,11	3844,18
532,306	3840,24
532,503	3819,55
532,699	3818,17
532,896	3905,41
533,092	3855,65
533,289	3807,98
533,485	4533,63
533,682	3912,48
533,878	3920,52
534,074	3866,25
534,271	3960,81
534,467	4021,28
534,664	3925,28
534,86	3981,14
535,056	4030,95
535,253	4085,22
535,449	4127,31
535,645	4111,9
535,841	4168,63
536,038	4177,89
536,234	4129,05
536,43	4177,43
536,626	4232,93
536,823	4210,35
537,019	4192,08
537,215	4199,24
537,411	4338,76
537,607	4303,59
537,804	4287,36
538	4260,79
538,196	4296,22
538,392	4186,7
538,588	4255,67
538,784	4184,6
538,98	4131,92
539,176	4192,84
539,373	4289,05
539,569	4285,41
539,765	4277,94
539,961	4402,4
540,157	4468,6
540,353	4452,94
540,549	4645,34
540,745	4587,18
540,941	4566,45
541,137	4562,81
541,333	4532,3
541,528	4485,14
541,724	4464,61
541,92	4547,09
542,116	4471,01
542,312	4590,36
542,508	4653,13
542,704	4699,05
542,9	4749,99
543,096	4790,29
543,291	4915,47
543,487	4910,09
543,683	5003,69
543,879	5067,63
544,075	4990,63
544,27	4910,25
544,466	4839,7
544,662	4876,2
544,858	4821,98
545,053	4760,59
545,249	4779,13
545,445	4733,15
545,64	4693,11
545,836	4634,8
546,032	4626,45
546,227	4598,96
546,423	4694,03
546,619	4642,37
546,814	4719,68
547,01	4776,16
547,205	4881,58
547,401	5081,92
547,597	5503,14
547,792	5788,72
547,988	6155,72
548,183	6278,14
548,379	6431,48
548,574	6303,07
548,77	6121,52
548,965	6007,6
549,161	5866,55
549,356	5813,97
549,552	5715,92
549,747	5589,56
549,942	5529,71
550,138	5460,33
550,333	5402,38
550,529	5530,12
550,724	5540,66
550,919	5639,38
551,115	5715,61
551,31	5861,58
551,505	5960,34
551,701	6009,14
551,896	6077,9
552,091	6238,92
552,287	6288,22
552,482	6236,92
552,677	6181,06
552,872	6105,9
553,067	6158,08
553,263	6214,65
553,458	6235,34
553,653	6422,01
553,848	6699,51
554,043	6968
554,239	7276,88
554,434	7418,45
554,629	7491,56
554,824	7421,77
555,019	7252,71
555,214	7165,16
555,409	7195,27
555,604	7269,92
555,799	7247,44
555,994	7251,28
556,189	7237,25
556,384	7292,55
556,579	7334,58
556,774	7305,3
556,969	7466,32
557,164	7488,08
557,359	7704,14
557,554	7866,8
557,749	8069,04
557,944	8357,95
558,139	8614,05
558,334	8864,16
558,529	9328,89
558,724	9726,92
558,918	10094,48
559,113	10429,27
559,308	10726,17
559,503	10813,98
559,698	10929,23
559,893	10993,28
560,087	11155,17
560,282	11264,74
560,477	11661,58
560,672	11746,78
560,866	11931,76
561,061	12139,17
561,256	12448,16
561,45	12534,27
561,645	12890,36
561,84	13268,67
562,034	13610,07
562,229	13978,5
562,424	14529,81
562,618	15054,76
562,813	15632,34
563,008	16220,51
563,202	17102,47
563,397	17666,64
563,591	18372,26
563,786	19117,06
563,98	19764,68
564,175	19885,81
564,369	19973,21
564,564	20351,37
564,758	20795,16
564,953	20851,07
565,147	21249,3
565,342	21648,25
565,536	23584,65
565,731	28927,85
565,925	44146,72
566,119	62804,89
566,314	63211,41
566,508	64338,41
566,703	64338,41
566,897	64338,41
567,091	64338,41
567,286	64338,41
567,48	64338,41
567,674	64338,41
567,868	64338,41
568,063	64338,41
568,257	64338,41
568,451	64338,41
568,646	64338,41
568,84	64338,41
569,034	64338,41
569,228	64338,41
569,422	64338,41
569,616	64338,41
569,811	64338,41
570,005	64338,41
570,199	64338,41
570,393	64338,41
570,587	64338,41
570,781	64338,41
570,975	64338,41
571,169	64338,41
571,364	64338,41
571,558	64338,41
571,752	64338,41
571,946	64338,41
572,14	64338,41
572,334	64338,41
572,528	64338,41
572,722	64338,41
572,916	64338,41
573,109	64338,41
573,303	64338,41
573,497	64338,41
573,691	64338,41
573,885	64338,41
574,079	64338,41
574,273	64338,41
574,467	64338,41
574,661	64338,41
574,854	64338,41
575,048	64338,41
575,242	64338,41
575,436	64338,41
575,63	64338,41
575,823	64338,41
576,017	64338,41
576,211	64338,41
576,405	64338,41
576,598	64338,41
576,792	64338,41
576,986	64338,41
577,18	64338,41
577,373	64338,41
577,567	64338,41
577,761	64338,41
577,954	64338,41
578,148	64338,41
578,341	64338,41
578,535	64338,41
578,729	64338,41
578,922	64338,41
579,116	64338,41
579,309	64338,41
579,503	64338,41
579,696	64338,41
579,89	51319,58
580,083	43703,28
580,277	39963,79
580,47	45696,16
580,664	54598,22
580,857	59851,93
581,051	62867
581,244	63197,03
581,437	64338,41
581,631	64338,41
581,824	64338,41
582,018	64338,41
582,211	64338,41
582,404	64338,41
582,598	64338,41
582,791	64338,41
582,984	64338,41
583,178	64338,41
583,371	64338,41
583,564	64338,41
583,757	64338,41
583,951	64338,41
584,144	64338,41
584,337	64338,41
584,53	64338,41
584,723	64338,41
584,917	64338,41
585,11	64338,41
585,303	64338,41
585,496	64338,41
585,689	64338,41
585,882	64338,41
586,075	64338,41
586,268	64338,41
586,462	64338,41
586,655	64338,41
586,848	64338,41
587,041	64338,41
587,234	64338,41
587,427	64338,41
587,62	64338,41
587,813	64338,41
588,006	64338,41
588,199	64338,41
588,392	64338,41
588,585	64338,41
588,777	64338,41
588,97	64338,41
589,163	64338,41
589,356	64338,41
589,549	64338,41
589,742	64338,41
589,935	64338,41
590,128	64338,41
590,32	64338,41
590,513	64338,41
590,706	64338,41
590,899	64338,41
591,092	64338,41
591,284	64338,41
591,477	64338,41
591,67	64338,41
591,863	64338,41
592,055	64338,41
592,248	64338,41
592,441	64338,41
592,633	64338,41
592,826	64338,41
593,019	64338,41
593,211	64338,41
593,404	64338,41
593,596	64338,41
593,789	64338,41
593,982	64338,41
594,174	64338,41
594,367	64338,41
594,559	64338,41
594,752	64338,41
594,944	64338,41
595,137	64338,41
595,329	64338,41
595,522	64338,41
595,714	64338,41
595,907	64338,41
596,099	64338,41
596,292	64338,41
596,484	64338,41
596,676	64338,41
596,869	64338,41
597,061	64338,41
597,253	64338,41
597,446	64338,41
597,638	64338,41
597,83	64338,41
598,023	64338,41
598,215	64338,41
598,407	64338,41
598,6	64338,41
598,792	64338,41
598,984	64338,41
599,176	64338,41
599,369	64338,41
599,561	64338,41
599,753	64338,41
599,945	64338,41
600,137	64338,41
600,329	64338,41
600,522	64338,41
600,714	64338,41
600,906	64338,41
601,098	64338,41
601,29	64338,41
601,482	64338,41
601,674	64338,41
601,866	64338,41
602,058	64338,41
602,25	64338,41
602,442	64338,41
602,634	64338,41
602,826	64338,41
603,018	64338,41
603,21	64338,41
603,402	64338,41
603,594	64338,41
603,786	64338,41
603,978	64338,41
604,17	64338,41
604,362	64338,41
604,554	64338,41
604,745	64338,41
604,937	64338,41
605,129	64338,41
605,321	64338,41
605,513	64338,41
605,704	64338,41
605,896	64338,41
606,088	64338,41
606,28	64338,41
606,471	64338,41
606,663	64338,41
606,855	64338,41
607,047	64338,41
607,238	64338,41
607,43	64338,41
607,622	64338,41
607,813	64338,41
608,005	64338,41
608,197	64338,41
608,388	64338,41
608,58	64338,41
608,771	64338,41
608,963	64338,41
609,154	64338,41
609,346	64338,41
609,537	64338,41
609,729	64338,41
609,921	64338,41
610,112	64338,41
610,303	64338,41
610,495	64338,41
610,686	64338,41
610,878	64338,41
611,069	64338,41
611,261	64338,41
611,452	64338,41
611,643	64338,41
611,835	64338,41
612,026	64338,41
612,217	64338,41
612,409	64338,41
612,6	64338,41
612,791	64338,41
612,983	64338,41
613,174	64338,41
613,365	64338,41
613,557	64338,41
613,748	64338,41
613,939	64338,41
614,13	64338,41
614,321	64338,41
614,513	64338,41
614,704	64338,41
614,895	64338,41
615,086	64338,41
615,277	64338,41
615,468	64338,41
615,659	64338,41
615,851	64338,41
616,042	64338,41
616,233	64338,41
616,424	64338,41
616,615	64338,41
616,806	64338,41
616,997	64338,41
617,188	64338,41
617,379	64338,41
617,57	64338,41
617,761	64338,41
617,952	64338,41
618,143	64338,41
618,334	64338,41
618,524	64338,41
618,715	64338,41
618,906	64338,41
619,097	64338,41
619,288	64338,41
619,479	64338,41
619,67	64338,41
619,86	64338,41
620,051	64338,41
620,242	64338,41
620,433	64338,41
620,624	64338,41
620,814	64338,41
621,005	64338,41
621,196	64338,41
621,386	64338,41
621,577	64338,41
621,768	64338,41
621,958	64338,41
622,149	64338,41
622,34	64338,41
622,53	64338,41
622,721	64338,41
622,912	64338,41
623,102	64338,41
623,293	64338,41
623,483	64338,41
623,674	64338,41
623,864	64338,41
624,055	64338,41
624,245	64338,41
624,436	64338,41
624,626	64338,41
624,817	64338,41
625,007	64338,41
625,198	64338,41
625,388	64338,41
625,579	64338,41
625,769	64338,41
625,959	64338,41
626,15	64338,41
626,34	64338,41
626,531	64338,41
626,721	64338,41
626,911	64338,41
627,101	64338,41
627,292	64338,41
627,482	64338,41
627,672	64338,41
627,863	64338,41
628,053	64338,41
628,243	64338,41
628,433	64338,41
628,623	64338,41
628,814	64338,41
629,004	64338,41
629,194	64338,41
629,384	64338,41
629,574	64338,41
629,764	64338,41
629,955	64338,41
630,145	64338,41
630,335	64338,41
630,525	64338,41
630,715	64338,41
630,905	64338,41
631,095	64338,41
631,285	64338,41
631,475	64338,41
631,665	64338,41
631,855	64338,41
632,045	64338,41
632,235	64338,41
632,425	64338,41
632,615	64338,41
632,805	64338,41
632,994	64338,41
633,184	64338,41
633,374	64338,41
633,564	64338,41
633,754	64338,41
633,944	64338,41
634,133	64338,41
634,323	64338,41
634,513	64338,41
634,703	64338,41
634,893	64338,41
635,082	64338,41
635,272	64338,41
635,462	64338,41
635,651	64338,41
635,841	64338,41
636,031	64338,41
636,221	64338,41
636,41	64338,41
636,6	64338,41
636,789	64338,41
636,979	64338,41
637,169	64338,41
637,358	64338,41
637,548	64338,41
637,737	64338,41
637,927	64338,41
638,116	64338,41
638,306	64338,41
638,495	64338,41
638,685	64338,41
638,874	64338,41
639,064	64338,41
639,253	64338,41
639,443	64338,41
639,632	64338,41
639,822	64338,41
640,011	64338,41
640,2	64338,41
640,39	64338,41
640,579	64338,41
640,768	64338,41
640,958	64338,41
641,147	64338,41
641,336	64338,41
641,526	64338,41
641,715	64338,41
641,904	64338,41
642,093	64338,41
642,283	64338,41
642,472	64338,41
642,661	64338,41
642,85	64338,41
643,039	64338,41
643,228	64338,41
643,418	64338,41
643,607	64338,41
643,796	64338,41
643,985	64338,41
644,174	64338,41
644,363	64338,41
644,552	64338,41
644,741	64338,41
644,93	64338,41
645,119	64338,41
645,308	64338,41
645,497	64338,41
645,686	64338,41
645,875	64338,41
646,064	64338,41
646,253	64338,41
646,442	64338,41
646,631	64338,41
646,82	64338,41
647,009	64338,41
647,198	64338,41
647,387	64338,41
647,575	64338,41
647,764	64338,41
647,953	64338,41
648,142	64338,41
648,331	64338,41
648,519	64338,41
648,708	64338,41
648,897	64338,41
649,086	64338,41
649,274	64338,41
649,463	64338,41
649,652	64338,41
649,84	64338,41
650,029	64338,41
650,218	64338,41
650,406	64338,41
650,595	64338,41
650,784	64338,41
650,972	64338,41
651,161	64338,41
651,349	64338,41
651,538	64338,41
651,726	64338,41
651,915	64338,41
652,104	64338,41
652,292	64338,41
652,481	64338,41
652,669	64338,41
652,857	64338,41
653,046	64338,41
653,234	64338,41
653,423	64338,41
653,611	64338,41
653,8	64338,41
653,988	64338,41
654,176	64338,41
654,365	64338,41
654,553	64338,41
654,741	64338,41
654,93	64338,41
655,118	64338,41
655,306	64338,41
655,494	64338,41
655,683	64338,41
655,871	64338,41
656,059	64338,41
656,247	64338,41
656,436	64338,41
656,624	64338,41
656,812	64338,41
657	64338,41
657,188	64338,41
657,376	64338,41
657,564	64338,41
657,753	64338,41
657,941	64338,41
658,129	64338,41
658,317	64338,41
658,505	64338,41
658,693	64338,41
658,881	64338,41
659,069	64338,41
659,257	64338,41
659,445	64338,41
659,633	64338,41
659,821	64338,41
660,009	64338,41
660,197	64338,41
660,384	64338,41
660,572	64338,41
660,76	64338,41
660,948	64338,41
661,136	64338,41
661,324	64338,41
661,512	64338,41
661,699	64338,41
661,887	64338,41
662,075	64338,41
662,263	64338,41
662,451	64338,41
662,638	64338,41
662,826	64338,41
663,014	64338,41
663,201	64338,41
663,389	64338,41
663,577	64338,41
663,764	64338,41
663,952	64338,41
664,14	64338,41
664,327	63445,75
664,515	64338,41
664,702	33582,78
664,89	64338,41
665,078	4896,99
665,265	64338,41
665,453	5347,9
665,64	63908,75
665,828	5956,61
666,015	43735,23
666,203	6180,71
666,39	6086,6
666,578	5697,85
666,765	5427,41
666,952	5352,2
667,14	5153,44
667,327	4941,12
667,515	4838,52
667,702	4781,33
667,889	4735,45
668,077	4624,92
668,264	4674,48
668,451	4623,07
668,638	4563,99
668,826	4423,8
669,013	4443,98
669,2	4435,94
669,388	4392,37
669,575	4331,34
669,762	4242
669,949	4264,57
670,136	5026,37
670,323	4238,46
670,511	4167,6
670,698	4141,8
670,885	4090,45
671,072	4081,79
671,259	4038,84
671,446	3986,31
671,633	3925,33
671,82	3880,27
672,007	3864,71
672,194	3893,33
672,381	3874,64
672,568	3969,21
672,755	4172,31
672,942	4724,91
673,129	5434,89
673,316	6110,51
673,503	6569,15
673,69	6827,4
673,877	6836,41
674,064	6320,63
674,251	5702,66
674,437	5357,58
674,624	5098,1
674,811	4841,74
674,998	4597,98
675,185	4401,33
675,372	4308,4
675,558	4110,36
675,745	3979,14
675,932	3886,42
676,119	3791,85
676,305	3762,41
676,492	3742,6
676,679	3651,67
676,865	3654,95
677,052	3582,24
677,239	3555,72
677,425	3510
677,612	3571,75
677,798	3466,48
677,985	3456,7
678,172	3415,69
678,358	3420,71
678,545	3355,23
678,731	3347,24
678,918	3334,18
679,104	3326,14
679,291	3509,18
679,477	3278,68
679,664	3247,91
679,85	3268,24
680,036	3279,25
680,223	3193,95
680,409	3267,83
680,596	3256,21
680,782	3317,95
680,968	3296,5
681,155	3250,01
681,341	3269,57
681,527	3227,28
681,714	3199,89
681,9	3145,72
682,086	3146,69
682,272	3071,43
682,459	3069,53
682,645	3158,06
682,831	3064,47
683,017	3161,85
683,204	3147
683,39	3080,85
683,576	3162,92
683,762	3066,87
683,948	3066,67
684,134	2991,2
684,32	3073,83
684,506	3217,29
684,693	3619,93
684,879	4047,44
685,065	4739,96
685,251	5004,61
685,437	5406,37
685,623	5453,47
685,809	5226,05
685,995	4742,21
686,181	4435,58
686,366	4217,83
686,552	4048,21
686,738	3844,02
686,924	3783,87
687,11	3672,66
687,296	3630,32
687,482	3509,34
687,668	3336,03
687,853	3266,86
688,039	3243,1
688,225	3198,76
688,411	3149,97
688,597	3172,44
688,782	3137,07
688,968	3084,48
689,154	3069,69
689,34	3110,49
689,525	3086,79
689,711	3033,85
689,897	3131,69
690,082	2973,02
690,268	2999,08
690,454	2969,08
690,639	2946,14
690,825	2985,11
691,01	3002,21
691,196	3009,94
691,381	3207,21
691,567	3371,3
691,753	3674,2
691,938	3823,95
692,124	3947,19
692,309	3956,25
692,494	3835,78
692,68	3662,27
692,865	3599,55
693,051	3586,54
693,236	3632,11
693,422	3751,76
693,607	4388,73
693,792	7930,29
693,978	21996,71
694,163	54365,78
694,348	62431,39
694,534	62259,47
694,719	64100,49
694,904	63869,58
695,089	64338,41
695,275	64338,41
695,46	64338,41
695,645	64338,41
695,83	64338,41
696,016	64338,41
696,201	64338,41
696,386	64338,41
696,571	64338,41
696,756	64338,41
696,941	64338,41
697,126	64338,41
697,311	64338,41
697,497	64338,41
697,682	64338,41
697,867	64338,41
698,052	64338,41
698,237	63254,88
698,422	32619,52
698,607	7205,61
698,792	5511,07
698,977	4542,89
699,162	4010,63
699,347	3596,78
699,531	3285,24
699,716	3124,37
699,901	2978,86
700,086	3003,74
700,271	2936,11
700,456	3107,11
700,641	3473,6
700,825	3955,74
701,01	4500,14
701,195	4798,33
701,38	5001,89
701,565	4962,57
701,749	4570,7
701,934	4091,32
702,119	3910,02
702,303	3610,66
702,488	3435,35
702,673	3336,64
702,857	3179,56
703,042	3017,98
703,227	3083,82
703,411	3004,51
703,596	3192,82
703,78	3557,67
703,965	5892,91
704,15	14721,96
704,334	35414,74
704,519	60356,39
704,703	62436,67
704,888	62837,35
705,072	64078,27
705,257	64073,51
705,441	64338,41
705,625	64338,41
705,81	64338,41
705,994	64338,41
706,179	64338,41
706,363	64338,41
706,547	64338,41
706,732	59027,72
706,916	39430,09
707,1	16190,41
707,285	14370,38
707,469	12554,65
707,653	11136,43
707,837	9799,82
708,022	8448,22
708,206	7149,55
708,39	5864,35
708,574	5032,26
708,759	4346,49
708,943	3826,1
709,127	3568,98
709,311	3354,71
709,495	3094,88
709,679	2979,17
709,863	2920,95
710,047	2870,78
710,231	2884,24
710,415	2750,97
710,6	2812,97
710,784	2792,49
710,968	2840,06
711,152	2797,41
711,336	2685,08
711,519	2717,59
711,703	2648,83
711,887	2842,62
712,071	3400,59
712,255	5109,82
712,439	8006,01
712,623	10685,16
712,807	12532,22
712,991	13817,48
713,174	14027,04
713,358	12524,19
713,542	10366,29
713,726	8855,92
713,91	7901,36
714,093	6958,58
714,277	6090,85
714,461	5386,66
714,645	4821,72
714,828	4367,74
715,012	4076,67
715,196	3789,14
715,379	3638,36
715,563	3435,61
715,747	3236,8
715,93	3097,95
716,114	2920,44
716,297	2785,48
716,481	2699,98
716,664	2645,86
716,848	2602,75
717,031	2584,27
717,215	2514,94
717,398	2560,72
717,582	2514,79
717,765	2563,94
717,949	2471,42
718,132	2576,54
718,316	2599,01
718,499	2781,59
718,682	2985,06
718,866	2999,14
719,049	3116,64
719,233	3018,95
719,416	2987,26
719,599	2889,93
719,782	2713,39
719,966	2660,91
720,149	2627,58
720,332	2627,79
720,515	2537,06
720,699	2561,07
720,882	2592,77
721,065	2521,55
721,248	2559,38
721,431	2523,75
721,615	2447,92
721,798	2488,73
721,981	2426,27
722,164	2395,09
722,347	2436,66
722,53	2500,45
722,713	2386,69
722,896	2441,32
723,079	2417,72
723,262	2438,96
723,445	2530,35
723,628	2411,01
723,811	2428,52
723,994	2457,14
724,177	2582,94
724,36	2737,05
724,543	3757,86
724,726	7084,83
724,909	14766,05
725,091	24635,92
725,274	32532,89
725,457	37659,16
725,64	40954,24
725,823	39461,84
726,006	32873,78
726,188	26134,63
726,371	22277,84
726,554	18473,07
726,737	15760,49
726,919	13152,2
727,102	11175,39
727,285	9416,24
727,467	8129,09
727,65	7026
727,833	6126,79
728,015	5204,95
728,198	4473,57
728,38	3833,94
728,563	3392,5
728,746	3111,21
728,928	3041,58
729,111	3020,49
729,293	3096,46
729,476	3171,68
729,658	3150,33
729,841	3111,72
730,023	3117,46
730,205	2908,61
730,388	2870,98
730,57	2811,85
730,753	2736,28
730,935	2713,49
731,117	2722,4
731,3	2576,13
731,482	2615,86
731,664	2614,63
731,847	2676,17
732,029	2662,09
732,211	2624,31
732,394	2549,66
732,576	2653,59
732,758	2793,26
732,94	2977,58
733,122	3241,67
733,305	3520,34
733,487	3575,84
733,669	3731,85
733,851	3662,16
734,033	3534,01
734,215	3364,8
734,397	3278,17
734,58	3375,76
734,762	3709,58
734,944	4360,73
735,126	4987,35
735,308	5667,54
735,49	7162,91
735,672	13040,33
735,854	32753,66
736,036	61817,87
736,218	62265,1
736,399	63543,75
736,581	63910,44
736,763	64338,41
736,945	64338,41
737,127	64338,41
737,309	64338,41
737,491	64338,41
737,672	64338,41
737,854	64338,41
738,036	64338,41
738,218	64338,41
738,4	64338,41
738,581	64338,41
738,763	64338,41
738,945	64338,41
739,127	64338,41
739,308	64338,41
739,49	64338,41
739,672	64338,41
739,853	64338,41
740,035	64338,41
740,216	64219,83
740,398	30331,53
740,58	4068,02
740,761	3253,08
740,943	3228,87
741,124	3263,37
741,306	3327,83
741,487	3430,03
741,669	3514,92
741,85	3505,19
742,032	3527,2
742,213	3350,98
742,394	3149,76
742,576	3094,67
742,757	3036,97
742,939	2910,82
743,12	2818,76
743,301	2764,8
743,483	2702,79
743,664	2667,47
743,845	2715,03
744,027	2775,6
744,208	2723,84
744,389	2806,42
744,57	2820,4
744,752	2979,53
744,933	3022,23
745,114	3073,48
745,295	3121,86
745,476	3171,68
745,657	3112,49
745,839	3090,37
746,02	3125,65
746,201	3187,34
746,382	3209,67
746,563	3288,62
746,744	3276,23
746,925	3311,55
747,106	3415,74
747,287	3644,6
747,468	4760,29
747,649	9647,61
747,83	25493,46
748,011	56713,46
748,192	62198,9
748,373	62114,83
748,554	63863,03
748,735	63680,65
748,915	64338,41
749,096	64338,41
749,277	64338,41
749,458	64338,41
749,639	64338,41
749,82	64338,41
750	64338,41
750,181	64338,41
750,362	64338,41
750,543	64338,41
750,723	64338,41
750,904	64338,41
751,085	64338,41
751,265	64338,41
751,446	64338,41
751,627	64338,41
751,807	64338,41
751,988	64338,41
752,169	64338,41
752,349	64338,41
752,53	64338,41
752,71	64338,41
752,891	64338,41
753,071	64338,41
753,252	64338,41
753,432	64338,41
753,613	64338,41
753,793	64338,41
753,974	64338,41
754,154	64338,41
754,334	64338,41
754,515	64338,41
754,695	64338,41
754,876	64338,41
755,056	59379,51
755,236	29211,75
755,417	3323,23
755,597	3252,37
755,777	3146,9
755,957	3215,5
756,138	3230,66
756,318	3239,82
756,498	3344,63
756,678	3481,23
756,859	3603,9
757,039	3690,48
757,219	3830,82
757,399	3879,35
757,579	3836,91
757,759	3729,49
757,939	3616,39
758,119	3624,64
758,3	3617,78
758,48	3600,21
758,66	3548,91
758,84	3559
759,02	3697,8
759,2	3697,29
759,38	3806,14
759,56	3974,22
759,74	4051,84
759,919	4200,78
760,099	4643,24
760,279	5280,06
760,459	7307,45
760,639	16169,21
760,819	62062,2
760,999	61870,15
761,178	63785,92
761,358	63548,61
761,538	64338,41
761,718	64338,41
761,898	64338,41
762,077	64338,41
762,257	64338,41
762,437	64338,41
762,616	64338,41
762,796	64338,41
762,976	64338,41
763,155	64338,41
763,335	64338,41
763,515	64338,41
763,694	64338,41
763,874	64338,41
764,053	64338,41
764,233	64338,41
764,413	64338,41
764,592	64338,41
764,772	64338,41
764,951	64338,41
765,131	64338,41
765,31	64338,41
765,489	64338,41
765,669	64338,41
765,848	64338,41
766,028	64338,41
766,207	64338,41
766,386	64338,41
766,566	64338,41
766,745	64338,41
766,924	64338,41
767,104	64338,41
767,283	64338,41
767,462	64338,41
767,642	64338,41
767,821	64338,41
768	64338,41
768,179	64338,41
768,358	64338,41
768,538	64338,41
768,717	64338,41
768,896	64338,41
769,075	64338,41
769,254	64338,41
769,433	64338,41
769,612	64338,41
769,791	64338,41
769,97	64338,41
770,149	64338,41
770,328	64338,41
770,507	64338,41
770,686	64338,41
770,865	64338,41
771,044	64338,41
771,223	64338,41
771,402	64338,41
771,581	64338,41
771,76	64338,41
771,939	64338,41
772,118	64338,41
772,297	64338,41
772,475	64338,41
772,654	64338,41
772,833	64338,41
773,012	64338,41
773,191	64338,41
773,369	64338,41
773,548	64338,41
773,727	64338,41
773,906	64338,41
774,084	64338,41
774,263	64338,41
774,442	64338,41
774,62	64338,41
774,799	64338,41
774,977	64338,41
775,156	64338,41
775,335	64338,41
775,513	64338,41
775,692	64338,41
775,87	64338,41
776,049	64338,41
776,227	64338,41
776,406	64338,41
776,584	64338,41
776,763	64338,41
776,941	64338,41
777,119	64338,41
777,298	64338,41
777,476	64338,41
777,655	64338,41
777,833	64338,41
778,011	64338,41
778,19	64338,41
778,368	64338,41
778,546	64338,41
778,725	64338,41
778,903	64338,41
779,081	64338,41
779,259	64338,41
779,437	64338,41
779,616	64338,41
779,794	64338,41
779,972	64338,41
780,15	64338,41
780,328	64338,41
780,506	64338,41
780,685	64338,41
780,863	64338,41
781,041	64338,41
781,219	64338,41
781,397	64338,41
781,575	64338,41
781,753	64338,41
781,931	64338,41
782,109	64338,41
782,287	64338,41
782,465	64338,41
782,643	64338,41
782,82	64338,41
782,998	64338,41
783,176	64338,41
783,354	64338,41
783,532	64338,41
783,71	64338,41
783,888	64338,41
784,065	64338,41
784,243	64338,41
784,421	64338,41
784,599	64338,41
784,776	64338,41
784,954	64338,41
785,132	64338,41
785,31	64338,41
785,487	64338,41
785,665	64338,41
785,842	64338,41
786,02	64338,41
786,198	64317,16
786,375	64338,41
786,553	2670,33
786,73	49649,51
786,908	2433,95
787,085	2561,79
787,263	2557,39
787,44	2630,6
787,618	2627,43
787,795	2514,38
787,973	2423,4
788,15	2425,5
788,328	2434,66
788,505	2486,94
788,682	2448,18
788,86	2466,71
789,037	2482,43
789,215	2451,56
789,392	2453,71
789,569	2472,45
789,746	2435,43
789,924	2419,66
790,101	2425,29
790,278	2423,3
790,455	2374,66
790,633	2379,32
790,81	2384,49
790,987	2383,52
791,164	2447,31
791,341	2489,34
791,518	2567,22
791,695	2898,37
791,873	3894,1
792,05	8097,81
792,227	21916,53
792,404	51905,91
792,581	62000,96
792,758	61852,43
792,935	63680,71
793,112	63477,14
793,289	64338,41
793,466	64338,36
793,643	64338,41
793,82	64338,41
793,996	64338,41
794,173	64338,41
794,35	64338,41
794,527	64338,41
794,704	64338,41
794,881	64338,41
795,057	64338,41
795,234	64338,41
795,411	43394,29
795,588	12099,44
795,765	4199,04
795,941	3790,73
796,118	3480,92
796,295	3345,55
796,471	3197,74
796,648	3107,17
796,825	3118,84
797,001	3098,26
797,178	3130,26
797,354	3193,59
797,531	3349,8
797,708	4080,92
797,884	7245,14
798,061	16991,22
798,237	35987,82
798,414	57571,51
798,59	61995,43
798,767	62038,9
798,943	63640,87
799,119	63537,4
799,296	64338,41
799,472	64337,9
799,649	64338,41
799,825	64338,41
800,001	64338,41
800,178	64338,41
800,354	64338,41
800,53	64338,41
800,707	64338,41
800,883	64338,41
801,059	64338,41
801,235	64338,41
801,411	64338,41
801,588	64338,41
801,764	64338,41
801,94	64338,41
802,116	64338,41
802,292	64338,41
802,468	64338,41
802,645	64338,41
802,821	60910,62
802,997	30847,47
803,173	3752,63
803,349	3541,13
803,525	3402,23
803,701	3340,38
803,877	3253,49
804,053	3199,94
804,229	3162,97
804,405	3223,8
804,581	3139,16
804,756	3137,42
804,932	3068,71
805,108	3141,62
805,284	3199,53
805,46	3279,55
805,636	3331,16
805,812	3384,97
805,987	3435,66
806,163	3455,42
806,339	3653,67
806,515	3491,16
806,69	3548,61
806,866	3688,12
807,042	3870,44
807,217	4192,33
807,393	5340,12
807,569	10027,3
807,744	26957,09
807,92	60472,72
808,096	61961,84
808,271	62628,31
808,447	63631,45
808,622	63782,69
808,798	64338,41
808,973	64338,41
809,149	64338,41
809,324	64338,41
809,5	64338,41
809,675	64338,41
809,851	64338,41
810,026	64338,41
810,201	64338,41
810,377	64338,41
810,552	64338,41
810,728	64338,41
810,903	64338,41
811,078	64338,41
811,253	64338,41
811,429	64338,41
811,604	64338,41
811,779	64338,41
811,955	64338,41
812,13	64338,41
812,305	64338,41
812,48	64338,41
812,655	64338,41
812,83	64338,41
813,006	64338,41
813,181	64338,41
813,356	64338,41
813,531	64338,41
813,706	64338,41
813,881	64338,41
814,056	64338,41
814,231	64338,41
814,406	64338,41
814,581	64338,41
814,756	64338,41
814,931	64338,41
815,106	64338,41
815,281	64338,41
815,456	64338,41
815,631	64338,41
815,805	64338,41
815,98	64338,41
816,155	64338,41
816,33	64338,41
816,505	64338,41
816,68	64338,41
816,854	64338,41
817,029	64338,41
817,204	64338,41
817,379	64338,41
817,553	64338,41
817,728	64338,41
817,903	64338,41
818,077	64338,41
818,252	64338,41
818,427	64338,41
818,601	64338,41
818,776	64338,41
818,95	64338,41
819,125	64338,41
819,299	64338,41
819,474	64338,41
819,648	64338,41
819,823	64338,41
819,997	64338,41
820,172	64338,41
820,346	64338,41
820,521	64338,41
820,695	64338,41
820,87	64338,41
821,044	64338,41
821,218	64338,41
821,393	64338,41
821,567	64338,41
821,741	64338,41
821,916	64338,41
822,09	64338,41
822,264	64338,41
822,438	64338,41
822,613	64338,41
822,787	64338,41
822,961	64338,41
823,135	64338,41
823,309	64338,41
823,483	64338,41
823,658	64338,41
823,832	64338,41
824,006	64338,41
824,18	64338,41
824,354	64338,41
824,528	64338,41
824,702	64338,41
824,876	64338,41
825,05	64338,41
825,224	64338,41
825,398	64338,41
825,572	64338,41
825,746	64338,41
825,92	64338,41
826,093	64338,41
826,267	64338,41
826,441	64338,41
826,615	64338,41
826,789	64338,41
826,963	64338,41
827,136	64338,41
827,31	64338,41
827,484	64338,41
827,658	64338,41
827,831	64338,41
828,005	64338,41
828,179	64338,41
828,353	64338,41
828,526	64338,41
828,7	64338,41
828,873	64338,41
829,047	64338,41
829,221	64338,41
829,394	64338,41
829,568	64338,41
829,741	64338,41
829,915	64338,41
830,088	64338,41
830,262	64338,41
830,435	64338,41
830,609	64338,41
830,782	64338,41
830,956	64338,41
831,129	64338,41
831,302	64338,41
831,476	64338,41
831,649	64338,41
831,822	64338,41
831,996	64338,41
832,169	64338,41
832,342	64338,41
832,516	64338,41
832,689	64338,41
832,862	64338,41
833,035	64338,41
833,209	64338,41
833,382	64338,41
833,555	64338,41
833,728	64338,41
833,901	64338,41
834,074	64338,41
834,247	64338,41
834,42	64338,41
834,594	64338,41
834,767	64338,41
834,94	64338,41
835,113	64338,41
835,286	64338,41
835,459	64338,41
835,632	64338,41
835,805	64338,41
835,977	64338,41
836,15	64338,41
836,323	64338,41
836,496	64338,41
836,669	64338,41
836,842	64338,41
837,015	64338,41
837,188	64338,41
837,36	64338,41
837,533	64338,41
837,706	64338,41
837,879	64338,41
838,051	64338,41
838,224	64338,41
838,397	64338,41
838,569	64338,41
838,742	64338,41
838,915	64338,41
839,087	64338,41
839,26	64338,41
839,433	64338,41
839,605	64338,41
839,778	64338,41
839,95	64338,41
840,123	64338,41
840,295	64338,41
840,468	64338,41
840,64	64338,41
840,813	64338,41
840,985	64338,41
841,158	64338,41
841,33	64338,41
841,502	64338,41
841,675	64338,41
841,847	64338,41
842,019	64338,41
842,192	64338,41
842,364	64338,41
842,536	64338,41
842,709	64338,41
842,881	64338,41
843,053	64338,41
843,225	64338,41
843,398	64338,41
843,57	64338,41
843,742	64338,41
843,914	64338,41
844,086	64338,41
844,258	64338,41
844,43	64338,41
844,602	64338,41
844,775	64338,41
844,947	64338,41
845,119	64338,41
845,291	64338,41
845,463	64338,41
845,635	64338,41
845,807	64338,41
845,979	64338,41
846,15	64338,41
846,322	64338,41
846,494	64338,41
846,666	64338,41
846,838	64338,41
847,01	64338,41
847,182	64338,41
847,354	64338,41
847,525	64338,41
847,697	64338,41
847,869	64338,41
848,041	64338,41
848,212	64338,41
848,384	64338,41
848,556	64338,41
848,727	64338,41
848,899	64338,41
849,071	64338,41
849,242	64338,41
849,414	64338,41
849,585	64338,41
849,757	64338,41
849,929	24280,96
850,1	49495,24
850,272	33091,68
850,443	34170,29
850,615	32661,76
850,786	28393,54
850,958	23074,14
851,129	18404,98
851,3	15672,43
851,472	13660,91
851,643	11746,06
851,815	10097,39
851,986	8886,74
852,157	7472,72
852,329	6219,41
852,5	4948,49
852,671	4036,12
852,842	3197,33
853,014	2662,19
853,185	2327,76
853,356	2053,49
853,527	1938,95
853,698	1855,04
853,87	1746,49
854,041	1812,49
854,212	1680,14
854,383	1688,69
854,554	1618,86
854,725	1721,97
854,896	1611,07
855,067	1612,15
855,238	1578,61
855,409	1578,36
855,58	1566,99
855,751	1677,73
855,922	1633,24
856,093	1816,89
856,264	1557,42
856,435	1632,42
856,606	1618,24
856,777	1649,17
856,948	1593,41
857,118	1531,66
857,289	1541,39
857,46	1615,42
857,631	1551,07
857,802	1540,78
857,972	1531,66
858,143	1612,25
858,314	1534,58
858,484	1519,38
858,655	1572,37
858,826	1581,63
858,996	1588,34
859,167	1612,25
859,338	1533,2
859,508	1485,17
859,679	1481,44
859,849	1446,47
860,02	1477,65
860,19	1456,5
860,361	1489,17
860,531	1425,22
860,702	1539,39
860,872	1499,2
861,043	1386,56
861,213	1457,37
861,384	1425,37
861,554	1427,68
861,724	1381,65
861,895	1444,52
862,065	1509,8
862,235	1477,29
862,406	1438,48
862,576	1417,18
862,746	1394,24
862,916	1428,29
863,087	1479,24
863,257	1425,42
863,427	1410,78
863,597	1474,93
863,767	1548,92
863,937	1527,77
864,108	1875,57
864,278	2219,78
864,448	2830,69
864,618	3654,89
864,788	4504,44
864,958	5370,89
865,128	5806,08
865,298	5982,72
865,468	5700,15
865,638	5183,55
865,808	4613,04
865,978	4012,47
866,148	3384,56
866,318	3165,33
866,487	3041,78
866,657	2725,17
866,827	2531,63
866,997	2215,74
867,167	2059,42
867,337	1854,22
867,506	1660,28
867,676	1502,43
867,846	1425,68
868,016	1420,1
868,185	1298,5
868,355	1355,03
868,525	1295,94
868,694	1283,76
868,864	1334,44
869,034	1270,19
869,203	1279,71
869,373	1278,43
869,542	1338,85
869,712	1308,79
869,881	1342,48
870,051	1296,86
870,22	1305,46
870,39	1275,72
870,559	1270,96
870,729	1207,93
870,898	1292,51
871,068	1280,07
871,237	1226,16
871,406	1220,37
871,576	1244,95
871,745	1234,25
871,914	1251,45
872,084	1257,29
872,253	1265,22
872,422	1257,24
872,591	1311,71
872,761	1237,47
872,93	1597,1
873,099	1216,38
873,268	1220,78
873,437	1173,42
873,607	1172,09
873,776	1200,05
873,945	1151,1
874,114	1136,66
874,283	1147,31
874,452	1155,09
874,621	1176,08
874,79	1205,42
874,959	1186,84
875,128	1172,55
875,297	1186,38
875,466	1234,76
875,635	1220,42
875,804	1143,16
875,973	1099,75
876,142	1195,9
876,31	1084,95
876,479	1109,12
876,648	1126,57
876,817	1059,4
876,986	1103,07
877,155	1097,08
877,323	1042,4
877,492	1143,32
877,661	1162
877,829	1101,23
877,998	1079,01
878,167	1135,43
878,335	1087,97
878,504	1085,36
878,673	1092,17
878,841	1065,7
879,01	1098,77
879,178	1094,11
879,347	1100,77
879,515	1081,06
879,684	1111,37
879,852	1016,34
880,021	1034,62
880,189	1043,99
880,358	1039,02
880,526	1171,63
880,695	962,89
880,863	1031,91
881,031	1004,52
881,2	1040,2
881,368	980,71
881,536	1112,03
881,705	1048,85
881,873	1029,25
882,041	1069,69
882,21	1043,84
882,378	1074,76
882,546	999,86
882,714	994,79
882,882	954,08
883,05	1021,72
883,219	949,32
883,387	950,71
883,555	954,19
883,723	956,8
883,891	1013,53
884,059	979,17
884,227	1043,58
884,395	1032,42
884,563	1092,37
884,731	1004,36
884,899	1044,86
885,067	981,68
885,235	964,99
885,403	989,1
885,571	970,21
885,739	904,47
