Data from USB4F035431__3__14-00-16-398.txt Node

Date: Wed Feb 12 14:00:16 CET 2025
User: Versuch 234
Spectrometer: USB4F03543
Trigger mode: 4
Integration Time (sec): 1,000000E-1
Scans to average: 1
Electric dark correction enabled: true
Nonlinearity correction enabled: false
Boxcar width: 0
XAxis mode: Wavelengths
Number of Pixels in Spectrum: 3648
>>>>>Begin Spectral Data<<<<<
179,969	-107,69
180,181	-107,69
180,394	-107,69
180,606	-156,84
180,819	-119,98
181,031	-31,91
181,243	47,96
181,456	-3,24
181,668	80,72
181,88	-29,87
182,093	80,72
182,305	-132,26
182,518	-66,73
182,73	-36,01
182,942	-31,91
183,155	37,72
183,367	84,82
183,579	68,44
183,791	-9,39
184,004	7
184,216	19,29
184,428	23,38
184,641	-9,39
184,853	19,29
185,065	-9,39
185,277	-13,48
185,49	39,76
185,702	-79,02
185,914	2,9
186,126	39,76
186,338	56,15
186,551	-17,58
186,763	13,14
186,975	-60,59
187,187	72,53
187,399	9,05
187,612	47,96
187,824	0,85
188,036	68,44
188,248	23,38
188,46	37,72
188,672	7
188,885	-19,63
189,097	74,58
189,309	-29,87
189,521	-13,48
189,733	29,52
189,945	23,38
190,157	47,96
190,369	-1,19
190,581	64,34
190,794	45,91
191,006	-74,92
191,218	17,24
191,43	62,29
191,642	-72,87
191,854	-17,58
192,066	31,57
192,278	60,24
192,49	-5,29
192,702	37,72
192,914	72,53
193,126	72,53
193,338	-66,73
193,55	74,58
193,762	56,15
193,974	-36,01
194,186	31,57
194,398	21,33
194,61	-27,82
194,822	-21,67
195,034	45,91
195,246	64,34
195,457	13,14
195,669	86,87
195,881	80,72
196,093	-9,39
196,305	76,63
196,517	-54,44
196,729	142,16
196,941	4,95
197,153	131,92
197,365	82,77
197,576	52,05
197,788	0,85
198	41,81
198,212	37,72
198,424	-1,19
198,636	-36,01
198,847	23,38
199,059	4,95
199,271	-36,01
199,483	4,95
199,695	21,33
199,906	31,57
200,118	13,14
200,33	133,97
200,542	375,63
200,753	-17,58
200,965	-60,59
201,177	62,29
201,389	103,25
201,6	19,29
201,812	17,24
202,024	19,29
202,235	-48,3
202,447	78,68
202,659	64,34
202,871	31,57
203,082	13,14
203,294	52,05
203,506	-9,39
203,717	23,38
203,929	52,05
204,141	-21,67
204,352	47,96
204,564	-17,58
204,775	31,57
204,987	27,48
205,199	-5,29
205,41	23,38
205,622	103,25
205,833	-7,34
206,045	78,68
206,257	-7,34
206,468	29,52
206,68	-36,01
206,891	35,67
207,103	11,09
207,314	2,9
207,526	15,19
207,737	-1,19
207,949	37,72
208,16	47,96
208,372	37,72
208,583	23,38
208,795	15,19
209,006	56,15
209,218	17,24
209,429	-70,83
209,641	-54,44
209,852	-5,29
210,064	23,38
210,275	37,72
210,487	86,87
210,698	0,85
210,909	76,63
211,121	-42,15
211,332	56,15
211,544	4,95
211,755	138,07
211,966	37,72
212,178	76,63
212,389	76,63
212,6	-46,25
212,812	146,26
213,023	27,48
213,234	52,05
213,446	52,05
213,657	0,85
213,868	64,34
214,08	136,02
214,291	41,81
214,502	95,06
214,714	-33,96
214,925	39,76
215,136	47,96
215,347	-3,24
215,559	-58,54
215,77	-5,29
215,981	146,26
216,192	35,67
216,404	-33,96
216,615	97,11
216,826	60,24
217,037	21,33
217,249	70,48
217,46	70,48
217,671	35,67
217,882	-66,73
218,093	39,76
218,304	50
218,516	127,83
218,727	-21,67
218,938	4,95
219,149	62,29
219,36	-50,35
219,571	54,1
219,782	43,86
219,993	95,06
220,205	-36,01
220,416	93,01
220,627	4,95
220,838	35,67
221,049	179,03
221,26	68,44
221,471	50
221,682	115,54
221,893	93,01
222,104	-48,3
222,315	-52,39
222,526	-93,35
222,737	35,67
222,948	15,19
223,159	45,91
223,37	-50,35
223,581	-25,77
223,792	39,76
224,003	80,72
224,214	-31,91
224,425	0,85
224,636	78,68
224,847	21,33
225,058	70,48
225,269	82,77
225,48	35,67
225,691	-19,63
225,902	21,33
226,112	113,49
226,323	-17,58
226,534	21,33
226,745	7
226,956	7
227,167	-7,34
227,378	43,86
227,589	-44,2
227,799	70,48
228,01	7
228,221	-3,24
228,432	50
228,643	-13,48
228,853	7
229,064	23,38
229,275	-11,43
229,486	86,87
229,697	4,95
229,907	-13,48
230,118	56,15
230,329	29,52
230,54	-9,39
230,75	15,19
230,961	21,33
231,172	4,95
231,383	21,33
231,593	-11,43
231,804	39,76
232,015	39,76
232,225	60,24
232,436	52,05
232,647	-23,72
232,857	88,92
233,068	15,19
233,279	70,48
233,489	-25,77
233,7	27,48
233,91	35,67
234,121	52,05
234,332	29,52
234,542	-58,54
234,753	-27,82
234,964	39,76
235,174	-1,19
235,385	70,48
235,595	56,15
235,806	29,52
236,016	-29,87
236,227	-36,01
236,437	27,48
236,648	-33,96
236,858	47,96
237,069	54,1
237,279	35,67
237,49	47,96
237,7	31,57
237,911	11,09
238,121	47,96
238,332	-42,15
238,542	23,38
238,753	-21,67
238,963	-66,73
239,174	78,68
239,384	-48,3
239,595	-9,39
239,805	-42,15
240,015	23,38
240,226	-11,43
240,436	15,19
240,647	56,15
240,857	-52,39
241,067	41,81
241,278	131,92
241,488	-17,58
241,698	47,96
241,909	-5,29
242,119	-11,43
242,329	47,96
242,54	68,44
242,75	41,81
242,96	15,19
243,171	11,09
243,381	7
243,591	35,67
243,801	43,86
244,012	164,69
244,222	21,33
244,432	-29,87
244,642	0,85
244,853	-66,73
245,063	-9,39
245,273	47,96
245,483	-3,24
245,694	-1,19
245,904	29,52
246,114	56,15
246,324	-27,82
246,534	117,59
246,744	-66,73
246,955	-44,2
247,165	115,54
247,375	58,2
247,585	23,38
247,795	-38,06
248,005	50
248,215	39,76
248,425	54,1
248,636	129,88
248,846	-52,39
249,056	-3,24
249,266	13,14
249,476	27,48
249,686	37,72
249,896	-11,43
250,106	-1,19
250,316	37,72
250,526	103,25
250,736	-1,19
250,946	113,49
251,156	103,25
251,366	37,72
251,576	82,77
251,786	105,3
251,996	-74,92
252,206	-17,58
252,416	7
252,626	25,43
252,836	4,95
253,046	-13,48
253,256	62,29
253,466	78,68
253,676	60,24
253,885	43,86
254,095	-25,77
254,305	64,34
254,515	64,34
254,725	58,2
254,935	-13,48
255,145	90,96
255,355	97,11
255,564	45,91
255,774	29,52
255,984	125,78
256,194	-7,34
256,404	19,29
256,614	-17,58
256,823	84,82
257,033	31,57
257,243	35,67
257,453	4,95
257,662	2,9
257,872	29,52
258,082	31,57
258,292	27,48
258,501	138,07
258,711	105,3
258,921	185,17
259,131	35,67
259,34	-29,87
259,55	47,96
259,76	2,9
259,969	17,24
260,179	-46,25
260,389	-13,48
260,598	23,38
260,808	66,39
261,018	-3,24
261,227	39,76
261,437	47,96
261,647	121,68
261,856	41,81
262,066	47,96
262,275	82,77
262,485	39,76
262,694	119,64
262,904	62,29
263,114	56,15
263,323	35,67
263,533	56,15
263,742	-11,43
263,952	52,05
264,161	-42,15
264,371	52,05
264,58	45,91
264,79	-50,35
264,999	56,15
265,209	2,9
265,418	74,58
265,628	7
265,837	13,14
266,047	-25,77
266,256	113,49
266,466	15,19
266,675	-44,2
266,884	-1,19
267,094	35,67
267,303	101,2
267,513	107,35
267,722	97,11
267,931	27,48
268,141	-1,19
268,35	23,38
268,559	43,86
268,769	4,95
268,978	-62,63
269,187	-7,34
269,397	54,1
269,606	13,14
269,815	-58,54
270,025	13,14
270,234	52,05
270,443	-19,63
270,653	88,92
270,862	23,38
271,071	52,05
271,28	-27,82
271,49	146,26
271,699	-25,77
271,908	60,24
272,117	62,29
272,327	64,34
272,536	-9,39
272,745	80,72
272,954	-50,35
273,163	56,15
273,372	13,14
273,582	15,19
273,791	4,95
274	43,86
274,209	27,48
274,418	76,63
274,627	68,44
274,836	-13,48
275,046	93,01
275,255	39,76
275,464	-15,53
275,673	-19,63
275,882	86,87
276,091	-3,24
276,3	66,39
276,509	90,96
276,718	113,49
276,927	-13,48
277,136	95,06
277,345	21,33
277,554	56,15
277,763	101,2
277,972	78,68
278,181	11,09
278,39	-42,15
278,599	-31,91
278,808	0,85
279,017	58,2
279,226	15,19
279,435	-9,39
279,644	37,72
279,853	133,97
280,062	131,92
280,271	7
280,48	86,87
280,688	72,53
280,897	31,57
281,106	-17,58
281,315	45,91
281,524	31,57
281,733	70,48
281,942	35,67
282,151	86,87
282,359	88,92
282,568	23,38
282,777	56,15
282,986	-11,43
283,195	99,16
283,403	78,68
283,612	64,34
283,821	9,05
284,03	52,05
284,238	37,72
284,447	78,68
284,656	-1,19
284,865	82,77
285,073	47,96
285,282	72,53
285,491	19,29
285,699	-15,53
285,908	60,24
286,117	-72,87
286,325	19,29
286,534	105,3
286,743	31,57
286,951	72,53
287,16	54,1
287,369	31,57
287,577	15,19
287,786	37,72
287,995	4,95
288,203	37,72
288,412	54,1
288,62	52,05
288,829	15,19
289,037	47,96
289,246	-5,29
289,455	54,1
289,663	86,87
289,872	76,63
290,08	4,95
290,289	146,26
290,497	7
290,706	43,86
290,914	-19,63
291,123	-5,29
291,331	47,96
291,54	176,98
291,748	105,3
291,957	105,3
292,165	7
292,373	-60,59
292,582	60,24
292,79	56,15
292,999	50
293,207	15,19
293,415	15,19
293,624	19,29
293,832	101,2
294,041	60,24
294,249	37,72
294,457	47,96
294,666	70,48
294,874	-93,35
295,082	-54,44
295,291	21,33
295,499	21,33
295,707	125,78
295,915	47,96
296,124	39,76
296,332	64,34
296,54	50
296,749	56,15
296,957	47,96
297,165	7
297,373	11,09
297,581	62,29
297,79	35,67
297,998	45,91
298,206	47,96
298,414	97,11
298,622	109,4
298,831	-9,39
299,039	11,09
299,247	60,24
299,455	123,73
299,663	37,72
299,871	78,68
300,08	97,11
300,288	39,76
300,496	-17,58
300,704	-64,68
300,912	70,48
301,12	82,77
301,328	37,72
301,536	70,48
301,744	25,43
301,952	23,38
302,16	2,9
302,368	4,95
302,576	37,72
302,784	39,76
302,992	-115,88
303,2	13,14
303,408	97,11
303,616	78,68
303,824	113,49
304,032	47,96
304,24	164,69
304,448	47,96
304,656	43,86
304,864	117,59
305,072	45,91
305,28	60,24
305,488	-11,43
305,696	103,25
305,904	-13,48
306,111	15,19
306,319	121,68
306,527	35,67
306,735	52,05
306,943	27,48
307,151	105,3
307,359	31,57
307,566	109,4
307,774	115,54
307,982	47,96
308,19	0,85
308,398	7
308,605	13,14
308,813	21,33
309,021	19,29
309,229	127,83
309,436	19,29
309,644	113,49
309,852	76,63
310,06	158,55
310,267	45,91
310,475	109,4
310,683	95,06
310,89	86,87
311,098	88,92
311,306	4,95
311,513	37,72
311,721	-17,58
311,929	103,25
312,136	19,29
312,344	-42,15
312,552	56,15
312,759	66,39
312,967	119,64
313,174	35,67
313,382	21,33
313,589	56,15
313,797	105,3
314,005	62,29
314,212	-13,48
314,42	21,33
314,627	13,14
314,835	17,24
315,042	17,24
315,25	17,24
315,457	60,24
315,665	-23,72
315,872	70,48
316,08	70,48
316,287	0,85
316,495	312,14
316,702	-15,53
316,909	72,53
317,117	31,57
317,324	47,96
317,532	11,09
317,739	-9,39
317,946	35,67
318,154	70,48
318,361	-21,67
318,569	29,52
318,776	33,62
318,983	88,92
319,191	88,92
319,398	13,14
319,605	150,36
319,813	37,72
320,02	23,38
320,227	172,88
320,434	146,26
320,642	103,25
320,849	56,15
321,056	93,01
321,264	158,55
321,471	56,15
321,678	64,34
321,885	82,77
322,092	119,64
322,3	93,01
322,507	121,68
322,714	39,76
322,921	37,72
323,128	88,92
323,336	84,82
323,543	138,07
323,75	160,59
323,957	117,59
324,164	152,4
324,371	179,03
324,578	95,06
324,786	146,26
324,993	78,68
325,2	185,17
325,407	29,52
325,614	160,59
325,821	226,13
326,028	314,19
326,235	312,14
326,442	158,55
326,649	203,6
326,856	244,56
327,063	195,41
327,27	215,89
327,477	217,94
327,684	213,84
327,891	166,74
328,098	260,95
328,305	324,43
328,512	187,22
328,719	246,61
328,926	402,26
329,133	277,33
329,34	445,26
329,546	349,01
329,753	441,17
329,96	267,09
330,167	398,16
330,374	457,55
330,581	385,87
330,788	344,91
330,995	373,58
331,201	330,58
331,408	400,21
331,615	430,93
331,822	355,15
332,029	447,31
332,235	471,89
332,442	451,41
332,649	535,37
332,856	439,12
333,062	416,59
333,269	422,73
333,476	539,47
333,683	586,57
333,889	627,53
334,096	670,54
334,303	631,63
334,509	613,2
334,716	580,43
334,923	662,35
335,129	660,3
335,336	768,84
335,543	695,11
335,749	742,22
335,956	799,56
336,163	562
336,369	742,22
336,576	736,07
336,782	738,12
336,989	748,36
337,196	883,53
337,402	789,32
337,609	865,1
337,815	947,01
338,022	1030,98
338,228	990,02
338,435	1090,37
338,641	1078,08
338,848	1133,38
339,054	1188,68
339,261	1104,71
339,467	1172,29
339,674	1321,79
339,88	1268,55
340,087	1315,65
340,293	1303,36
340,5	1348,42
340,706	1309,51
340,912	1266,5
341,119	1301,31
341,325	1385,28
341,532	1397,57
341,738	1356,61
341,944	1585,98
342,151	1432,38
342,357	1510,21
342,563	1624,89
342,77	1579,84
342,976	1608,51
343,182	1616,7
343,389	1520,45
343,595	1477,44
343,801	1399,62
344,007	1510,21
344,214	1461,06
344,42	1567,55
344,626	1702,72
344,832	1635,13
345,039	1780,54
345,245	1737,53
345,451	1801,02
345,657	1858,36
345,864	1870,65
346,07	1907,51
346,276	2009,91
346,482	2095,93
346,688	2063,16
346,894	1946,42
347,1	2018,1
347,307	2165,56
347,513	2173,75
347,719	2202,42
347,925	2118,45
348,131	2134,84
348,337	2235,19
348,543	2214,71
348,749	2181,94
348,955	2313,01
349,161	2394,93
349,367	2374,45
349,573	2601,77
349,779	2628,4
349,985	2706,22
350,191	2661,16
350,397	2710,32
350,603	2810,67
350,809	2628,4
351,015	2773,8
351,221	2589,49
351,427	2693,93
351,633	2763,56
351,839	2884,39
352,045	2829,1
352,251	2763,56
352,457	2833,19
352,663	3033,9
352,869	2923,3
353,075	3097,38
353,28	3255,08
353,486	3312,42
353,692	3406,63
353,898	3365,67
354,104	3595,04
354,31	3480,35
354,515	3492,64
354,721	3832,6
354,927	3494,69
355,133	3537,7
355,339	3488,54
355,544	3437,34
355,75	3259,17
355,956	3240,74
356,162	3250,98
356,367	3085,09
356,573	2960,17
356,779	3164,97
356,984	2964,26
357,19	2972,46
357,396	2771,76
357,602	2855,72
357,807	2777,9
358,013	2808,62
358,218	2851,63
358,424	3087,14
358,63	3242,79
358,835	3668,77
359,041	3681,05
359,247	3980,06
359,452	4029,21
359,658	4141,85
359,863	4037,4
360,069	3978,01
360,274	3906,33
360,48	3988,25
360,685	3930,91
360,891	3801,88
361,097	3891,99
361,302	4031,26
361,508	4135,7
361,713	3975,96
361,918	4297,49
362,124	4201,24
362,329	4291,35
362,535	4535,06
362,74	4403,99
362,946	4582,16
363,151	4592,4
363,357	4700,94
363,562	4469,52
363,767	4784,91
363,973	4893,45
364,178	4786,96
364,383	4840,2
364,589	5208,84
364,794	5094,15
365	5450,5
365,205	5708,54
365,41	5839,61
365,615	5937,91
365,821	5847,8
366,026	6075,13
366,231	6169,34
366,437	5999,35
366,642	5997,31
366,847	6085,37
367,052	5905,15
367,258	5905,15
367,463	5798,65
367,668	5606,14
367,873	5827,32
368,078	5643,01
368,284	5872,38
368,489	5786,37
368,694	6116,09
368,899	6372,08
369,104	6402,8
369,309	6318,84
369,515	6413,04
369,72	6200,05
369,925	6036,22
370,13	6220,53
370,335	6249,21
370,54	6367,99
370,745	6206,2
370,95	6111,99
371,155	6318,84
371,36	5946,11
371,565	5976,83
371,77	5782,27
371,975	5651,2
372,18	5761,79
372,385	5692,16
372,59	5430,02
372,795	5280,52
373	5210,89
373,205	5106,44
373,41	5059,34
373,615	5075,72
373,82	4815,63
374,025	5034,76
374,23	4930,31
374,435	5188,36
374,64	5331,72
374,845	5647,1
375,05	5782,27
375,254	5749,5
375,459	5919,48
375,664	5905,15
375,869	5862,14
376,074	6206,2
376,279	6261,49
376,483	6632,18
376,688	6611,7
376,893	6789,87
377,098	7025,39
377,303	7232,23
377,507	7344,87
377,712	7400,16
377,917	7185,13
378,122	7047,91
378,326	6748,91
378,531	6445,81
378,736	6257,4
378,94	6073,08
379,145	6279,93
379,35	6183,67
379,554	6294,26
379,759	6271,73
379,964	6396,66
380,168	6425,33
380,373	6337,27
380,578	6421,24
380,782	6167,29
380,987	6058,74
381,191	5577,47
381,396	5309,19
381,601	5110,54
381,805	5012,23
382,01	4514,58
382,214	4264,72
382,419	4338,45
382,623	4242,2
382,828	4045,59
383,032	4223,76
383,237	4363,03
383,441	4643,6
383,646	4809,48
383,85	5200,65
384,055	5487,36
384,259	5661,44
384,464	5860,09
384,668	5694,21
384,872	5528,32
385,077	5673,73
385,281	5712,64
385,486	5815,04
385,69	5899
385,894	6025,98
386,099	5796,6
386,303	6099,7
386,507	6165,24
386,712	5868,28
386,916	5712,64
387,12	5921,53
387,325	6019,83
387,529	5835,52
387,733	6015,74
387,937	6191,86
388,142	6122,23
388,346	6490,87
388,55	6460,15
388,754	6849,26
388,959	6922,99
389,163	7328,49
389,367	7154,41
389,571	7385,83
389,775	7361,25
389,98	7674,59
390,184	7574,24
390,388	8256,22
390,592	7717,6
390,796	7903,96
391	7715,55
391,204	7639,78
391,409	7125,74
391,613	6925,04
391,817	6593,26
392,021	6007,55
392,225	5354,24
392,429	4815,63
392,633	4520,72
392,837	4291,35
393,041	4561,68
393,245	4995,85
393,449	5192,45
393,653	5821,18
393,857	6155
394,061	7056,11
394,265	7117,54
394,469	7828,19
394,673	7568,1
394,877	7549,67
395,081	8065,75
395,285	7158,5
395,489	6572,79
395,693	6193,91
395,896	5741,31
396,1	5411,59
396,304	5526,27
396,508	5595,9
396,712	5976,83
396,916	6449,91
397,12	7451,36
397,323	8063,71
397,527	8735,44
397,731	9398,98
397,935	9255,62
398,139	9900,73
398,342	10429,11
398,546	10218,17
398,75	10506,93
398,954	10773,17
399,157	10277,56
399,361	10668,72
399,565	10861,23
399,769	10793,65
399,972	10932,91
400,176	11334,31
400,38	11154,09
400,583	11645,6
400,787	11848,35
400,991	11270,83
401,194	11352,74
401,398	11803,3
401,601	11752,1
401,805	11393,7
402,009	11793,06
402,212	11532,97
402,416	11610,79
402,619	11661,99
402,823	11496,1
403,026	11492,01
403,23	11029,17
403,433	11555,49
403,637	11000,49
403,841	11203,24
404,044	11600,55
404,247	11807,39
404,451	11625,12
404,654	11563,68
404,858	11713,19
405,061	11197,1
405,265	11328,17
405,468	11750,05
405,672	11221,67
405,875	10709,68
406,078	11381,42
406,282	11330,22
406,485	11135,66
406,689	11561,64
406,892	11784,87
407,095	11037,36
407,299	11530,92
407,502	11711,14
407,705	12190,36
407,909	12196,51
408,112	12786,32
408,315	12997,26
408,518	12665,49
408,722	11774,63
408,925	11555,49
409,128	11901,6
409,331	11748
409,535	11682,47
409,738	11956,89
409,941	11944,61
410,144	11698,85
410,347	12556,95
410,551	12298,91
410,754	12714,64
410,957	12778,13
411,16	12839,57
411,363	12817,04
411,566	13224,59
411,769	12970,64
411,973	13044,37
412,176	12847,76
412,379	13619,85
412,582	13009,55
412,785	12896,91
412,988	13263,5
413,191	12941,97
413,394	12714,64
413,597	12946,06
413,8	13169,29
414,003	13331,08
414,206	12843,67
414,409	13275,79
414,612	12911,25
414,815	13208,2
415,018	12931,73
415,221	13134,48
415,424	13402,76
415,627	13308,55
415,83	13298,31
416,033	13224,59
416,235	13402,76
416,438	13611,65
416,641	12579,48
416,844	12866,19
417,047	12739,22
417,25	12573,33
417,453	12774,03
417,655	12446,36
417,858	12733,08
418,061	12645,01
418,264	12325,53
418,467	12755,6
418,669	12536,47
418,872	12589,72
419,075	12536,47
419,278	12712,6
419,48	12888,72
419,683	13169,29
419,886	12851,86
420,089	13961,86
420,291	13185,68
420,494	13734,53
420,697	13247,12
420,899	13187,72
421,102	12622,48
421,305	12995,22
421,507	12614,29
421,71	12710,55
421,912	12653,2
422,115	12806,8
422,318	12102,3
422,52	12399,26
422,723	12593,81
422,925	13189,77
423,128	12548,76
423,33	12716,69
423,533	12266,14
423,735	12995,22
423,938	12923,54
424,14	12858
424,343	12255,9
424,545	13171,34
424,748	12487,32
424,95	12307,1
425,153	13322,89
425,355	13087,37
425,558	13552,26
425,76	12417,69
425,962	12145,31
426,165	12110,49
426,367	12827,28
426,57	12894,86
426,772	12114,59
426,974	12853,91
427,177	12118,68
427,379	12389,02
427,581	12311,19
427,784	12675,73
427,986	11643,56
428,188	12071,58
428,39	12280,47
428,593	11475,62
428,795	11686,56
428,997	11242,15
429,2	10508,98
429,402	10672,82
429,604	10109,63
429,806	9964,22
430,008	10263,22
430,211	10670,77
430,413	11360,94
430,615	11858,59
430,817	12735,12
431,019	13019,79
431,221	13275,79
431,423	12892,82
431,626	13079,18
431,828	13144,72
432,03	13273,74
432,232	13353,61
432,434	13759,11
432,636	14275,2
432,838	13079,18
433,04	13058,7
433,242	13474,44
433,444	12874,38
433,646	13093,52
433,848	13806,21
434,05	13920,9
434,252	13333,13
434,454	13707,91
434,656	14209,66
434,858	14613,11
435,06	15245,93
435,262	14908,02
435,464	15624,81
435,666	15522,41
435,868	15053,42
436,07	15415,91
436,271	15776,36
436,473	14729,84
436,675	15012,46
436,877	14389,88
437,079	13646,47
437,281	14045,82
437,482	14217,85
437,684	13865,6
437,886	13720,2
438,088	13959,81
438,29	13834,88
438,491	14320,25
438,693	14068,35
438,895	14604,92
439,097	15446,63
439,298	14660,21
439,5	14621,3
439,702	14684,79
439,903	14504,57
440,105	15223,41
440,307	16144,99
440,508	15905,38
440,71	16243,29
440,912	15716,97
441,113	15585,9
441,315	15979,11
441,517	16329,31
441,718	16667,22
441,92	16390,75
442,121	15997,54
442,323	16636,5
442,524	16249,44
442,726	16454,23
442,928	16190,05
443,129	16839,25
443,331	15727,21
443,532	16040,54
443,734	16575,06
443,935	16761,43
444,136	15354,48
444,338	16138,85
444,539	15819,36
444,741	15692,39
444,942	15121,01
445,144	15499,88
445,345	15962,72
445,546	16304,73
445,748	15446,63
445,949	15524,46
446,151	16058,98
446,352	16427,61
446,553	16407,13
446,755	16142,94
446,956	17054,29
447,157	16964,18
447,359	16681,56
447,56	16929,36
447,761	16456,28
447,962	17048,15
448,164	17226,32
448,365	16036,45
448,566	16910,93
448,767	16573,02
448,969	17562,19
449,17	17420,88
449,371	17103,44
449,572	17572,43
449,773	17951,3
449,974	17846,85
450,176	17769,03
450,377	18461,24
450,578	17855,04
450,779	16781,91
450,98	16265,82
451,181	16949,84
451,382	16491,1
451,583	16685,65
451,784	15886,95
451,986	17529,42
452,187	16091,74
452,388	16271,97
452,589	15524,46
452,79	16874,07
452,991	16022,11
453,192	17298
453,393	16501,34
453,594	17556,04
453,795	16276,06
453,995	16249,44
454,196	16536,15
454,397	17058,39
454,598	17175,12
454,799	16935,51
455	17355,34
455,201	17721,93
455,402	17367,63
455,603	17039,95
455,804	18240,06
456,004	18983,48
456,205	17490,51
456,406	17517,13
456,607	17525,32
456,808	17906,24
457,008	17136,21
457,209	16626,26
457,41	18348,61
457,611	17242,7
457,811	17629,77
458,012	17568,33
458,213	18428,48
458,414	17510,99
458,614	17517,13
458,815	17926,72
459,016	17578,57
459,216	18342,46
459,417	18637,37
459,618	18362,94
459,818	18422,33
460,019	18063,94
460,22	18315,84
460,42	18813,49
460,621	17683,02
460,821	18827,83
461,022	18559,55
461,223	18281,02
461,423	18856,5
461,624	19141,17
461,824	19405,36
462,025	18313,79
462,225	19032,63
462,426	19610,15
462,626	19073,59
462,827	18919,99
463,027	18354,75
463,228	18995,76
463,428	18174,53
463,628	18977,33
463,829	19704,36
464,029	18481,72
464,23	19546,67
464,43	18999,86
464,63	19184,18
464,831	19477,04
465,031	20034,08
465,231	20038,18
465,432	19935,78
465,632	19257,9
465,832	18635,32
466,033	19841,57
466,233	19382,83
466,433	19085,87
466,634	20320,8
466,834	20533,79
467,034	19630,63
467,234	21068,31
467,435	20388,38
467,635	20851,22
467,835	19571,24
468,035	20996,63
468,235	20388,38
468,436	20392,48
468,636	20652,57
468,836	20029,99
469,036	21383,7
469,236	19962,4
469,436	20230,69
469,636	20668,95
469,836	20310,56
470,037	21156,37
470,237	21049,88
470,437	21891,59
470,637	21668,36
470,837	22153,73
471,037	22147,59
471,237	23200,24
471,437	22352,38
471,637	22702,59
471,837	23327,22
472,037	22356,48
472,237	22749,69
472,437	23386,61
472,637	23929,32
472,837	23636,46
473,036	22823,42
473,236	23452,14
473,436	23761,39
473,636	24363,49
473,836	23542,25
474,036	24621,53
474,236	25010,65
474,436	24721,88
474,635	24510,94
474,835	24719,84
475,035	25518,54
475,235	25858,51
475,435	25686,48
475,634	25156,05
475,834	26722,75
476,034	26366,4
476,234	26661,31
476,433	27087,29
476,633	26859,96
476,833	27744,69
477,033	27517,36
477,232	28332,45
477,432	26841,53
477,632	28236,2
477,831	28074,41
478,031	27996,59
478,231	29145,5
478,43	29077,91
478,63	29198,74
478,829	29073,82
479,029	29477,27
479,229	29931,92
479,428	30245,26
479,628	30550,4
479,827	30448
480,027	30665,09
480,226	30939,52
480,426	32029,04
480,625	31295,86
480,825	32563,56
481,024	32117,1
481,224	33093,98
481,423	32203,11
481,623	32686,43
481,822	32684,39
482,021	33143,13
482,221	33007,97
482,42	33171,8
482,62	33126,75
482,819	33487,19
483,018	33411,42
483,218	33329,5
483,417	33460,57
483,616	33405,27
483,816	32917,86
484,015	33042,78
484,214	32461,16
484,414	31953,26
484,613	30466,44
484,812	30505,35
485,011	30603,65
485,211	29981,07
485,41	30382,47
485,609	30886,27
485,808	31048,06
486,008	32250,22
486,207	31879,53
486,406	32438,63
486,605	32551,27
486,804	33511,77
487,003	33620,31
487,203	34140,49
487,402	34085,2
487,601	34148,68
487,8	34107,72
487,999	34750,79
488,198	34928,96
488,397	35721,52
488,596	35598,65
488,795	36372,78
488,994	36837,67
489,193	36301,1
489,392	37396,76
489,591	36546,86
489,79	36692,26
489,989	37159,2
490,188	36618,53
490,387	36221,23
490,586	35709,24
490,785	35922,23
490,984	36108,59
491,183	36342,06
491,382	35692,85
491,581	36735,27
491,779	36604,2
491,978	36958,5
492,177	36868,39
492,376	37159,2
492,575	37208,35
492,774	36966,69
492,972	37527,83
493,171	37703,96
493,37	38050,06
493,569	38363,4
493,768	38191,37
493,966	38097,17
494,165	37734,68
494,364	38314,25
494,563	37763,35
494,761	38244,62
494,96	37712,15
495,159	38625,54
495,357	37851,41
495,556	37994,77
495,755	37929,23
495,953	38387,98
496,152	38099,22
496,35	38170,89
496,549	37280,03
496,748	37249,31
496,946	36999,46
497,145	36876,58
497,343	36833,57
497,542	36993,31
497,74	37206,3
497,939	37839,12
498,137	37675,29
498,336	37310,75
498,534	36831,52
498,733	36677,93
498,931	36745,51
499,13	36700,45
499,328	35713,33
499,527	36397,35
499,725	35348,79
499,924	35422,52
500,122	34890,05
500,32	35445,05
500,519	35010,88
500,717	34679,11
500,915	34902,34
501,114	35184,96
501,312	35082,56
501,51	35604,79
501,709	35660,09
501,907	35518,78
502,105	35148,09
502,304	34902,34
502,502	34451,78
502,7	34160,97
502,898	34195,79
503,097	34711,88
503,295	34832,71
503,493	35307,83
503,691	35334,46
503,889	35463,48
504,088	35082,56
504,286	35766,58
504,484	35684,66
504,682	36720,93
504,88	35782,96
505,078	36098,35
505,276	35924,27
505,474	36061,49
505,672	35408,19
505,871	35793,2
506,069	35500,34
506,267	35488,06
506,465	35242,3
506,663	35303,74
506,861	34988,35
507,059	35447,1
507,257	35488,06
507,455	35961,14
507,653	36288,81
507,851	36223,28
508,049	35731,76
508,246	36200,75
508,444	35770,68
508,642	36127,02
508,84	35541,3
509,038	36090,16
509,236	35807,54
509,434	35881,27
509,632	36024,62
509,829	36968,74
510,027	36389,16
510,225	36614,44
510,423	37021,98
510,621	36571,43
510,818	36669,73
511,016	36684,07
511,214	36405,55
511,412	36569,38
511,609	35797,3
511,807	36469,03
512,005	35531,06
512,203	36200,75
512,4	36233,52
512,598	36196,65
512,796	35725,62
512,993	36163,89
513,191	36180,27
513,389	36067,63
513,586	36663,59
513,784	36393,26
513,981	36389,16
514,179	37013,79
514,377	36483,37
514,574	36819,24
514,772	36260,14
514,969	35703,09
515,167	34715,97
515,364	34533,7
515,562	33710,42
515,759	33888,59
515,957	33046,88
516,154	34240,84
516,352	34111,82
516,549	34042,19
516,746	34042,19
516,944	34148,68
517,141	34574,66
517,339	34031,95
517,536	34687,3
517,733	34945,34
517,931	35686,71
518,128	35776,82
518,325	36045,1
518,523	36995,36
518,72	36495,66
518,917	37179,68
519,115	37021,98
519,312	37650,71
519,509	37351,71
519,707	37421,34
519,904	37689,62
520,101	38486,28
520,298	38281,49
520,495	38482,19
520,693	38181,13
520,89	38381,84
521,087	37798,16
521,284	38791,43
521,481	38068,5
521,678	37962
521,876	38109,46
522,073	38510,86
522,27	38377,74
522,467	39002,37
522,664	39041,28
522,861	39739,64
523,058	39252,22
523,255	39145,73
523,452	39700,73
523,649	39039,23
523,846	39391,48
524,043	39280,89
524,24	39358,72
524,437	38619,4
524,634	38512,91
524,831	38404,36
525,028	37062,94
525,225	37308,7
525,422	36557,1
525,619	36585,77
525,816	35797,3
526,013	36782,37
526,209	36753,7
526,406	37415,19
526,603	37300,51
526,8	38226,19
526,997	38160,66
527,194	38945,03
527,39	38795,53
527,587	38979,84
527,784	38854,92
527,981	39106,82
528,177	39274,75
528,374	39268,61
528,571	38439,18
528,768	39321,85
528,964	39657,72
529,161	39397,63
529,358	39655,67
529,554	39823,61
529,751	39162,11
529,948	39356,67
530,144	39293,18
530,341	39686,39
530,537	39506,17
530,734	39184,64
530,931	37980,43
531,127	38072,59
531,324	37996,82
531,52	37706,01
531,717	37663
531,913	38187,28
532,11	37740,82
532,306	38093,07
532,503	37859,6
532,699	38193,42
532,896	38347,02
533,092	38082,83
533,289	38201,61
533,485	39350,52
533,682	38893,83
533,878	38973,7
534,074	38404,36
534,271	39338,24
534,467	38783,24
534,664	38904,07
534,86	38809,86
535,056	38584,58
535,253	38011,15
535,449	38543,63
535,645	37701,91
535,841	38039,82
536,038	37499,16
536,234	37970,19
536,43	38416,65
536,626	38555,91
536,823	38193,42
537,019	38256,91
537,215	38146,32
537,411	37806,36
537,607	37605,66
537,804	37572,89
538	37132,57
538,196	36917,54
538,392	36614,44
538,588	36815,14
538,784	36038,96
538,98	36360,49
539,176	36129,07
539,373	36430,12
539,569	35993,9
539,765	35805,49
539,961	36471,08
540,157	36104,49
540,353	35557,69
540,549	37003,55
540,745	35967,28
540,941	36604,2
541,137	35733,81
541,333	35916,08
541,528	36376,87
541,724	35842,35
541,92	36036,91
542,116	36114,73
542,312	35889,46
542,508	36446,51
542,704	36528,42
542,9	36450,6
543,096	36061,49
543,291	36362,54
543,487	36143,41
543,683	36258,09
543,879	36350,25
544,075	35885,36
544,27	36268,33
544,466	35940,66
544,662	35848,5
544,858	36047,15
545,053	36180,27
545,249	36884,77
545,445	36034,86
545,64	35987,76
545,836	35313,98
546,032	35313,98
546,227	35553,59
546,423	34920,77
546,619	35297,59
546,814	35641,65
547,01	35103,04
547,205	35739,96
547,401	35424,57
547,597	35815,73
547,792	35131,71
547,988	35596,6
548,183	35160,38
548,379	35653,94
548,574	35107,13
548,77	35592,5
548,965	34898,24
549,161	35250,49
549,356	34822,47
549,552	35369,27
549,747	34724,16
549,942	34658,63
550,138	35133,76
550,333	34773,31
550,529	35025,21
550,724	35389,75
550,919	34548,04
551,115	35135,81
551,31	34683,2
551,505	34984,26
551,701	34386,25
551,896	34586,95
552,091	34523,46
552,287	34931,01
552,482	34488,65
552,677	34591,05
552,872	34322,76
553,067	34468,17
553,263	34851,14
553,458	34871,62
553,653	34490,7
553,848	34701,64
554,043	34079,05
554,239	34400,58
554,434	33931,6
554,629	34203,98
554,824	33851,73
555,019	34324,81
555,214	33775,95
555,409	33171,8
555,604	33479
555,799	33608,02
555,994	32850,27
556,189	32956,77
556,384	33415,51
556,579	33229,15
556,774	32727,39
556,969	32903,52
557,164	32313,7
557,359	32186,73
557,554	32020,84
557,749	32264,55
557,944	31394,17
558,139	31654,26
558,334	31482,23
558,529	31873,39
558,724	31832,43
558,918	32000,37
559,113	32018,8
559,308	32272,74
559,503	32143,72
559,698	31914,35
559,893	31697,27
560,087	31957,36
560,282	31539,57
560,477	31625,59
560,672	31529,33
560,866	31623,54
561,061	31091,07
561,256	31701,36
561,45	31529,33
561,645	32088,43
561,84	31519,09
562,034	31379,83
562,229	31056,25
562,424	31558
562,618	31148,41
562,813	31109,5
563,008	30699,9
563,202	30988,67
563,397	30833,02
563,591	30677,38
563,786	30691,71
563,98	30583,17
564,175	30265,74
564,369	30040,46
564,564	30230,92
564,758	30517,64
564,953	30007,69
565,147	30108,04
565,342	30011,79
565,536	30108,04
565,731	29893,01
565,925	30519,68
566,119	30024,08
566,314	29868,43
566,508	29604,24
566,703	29999,5
566,897	28950,94
567,091	29487,51
567,286	28889,5
567,48	28838,3
567,674	28881,31
567,868	29206,94
568,063	28342,69
568,257	28930,46
568,451	28967,32
568,646	28379,56
568,84	28238,25
569,034	28033,45
569,228	27767,21
569,422	27976,11
569,616	27705,77
569,811	27873,71
570,005	27398,58
570,199	28058,03
570,393	27871,66
570,587	28193,19
570,781	27947,43
570,975	28406,18
571,169	27959,72
571,364	28408,23
571,558	28430,76
571,752	28328,36
571,946	27632,05
572,14	28459,43
572,334	27984,3
572,528	28209,57
572,722	27892,14
572,916	27720,11
573,109	27842,99
573,303	27689,39
573,497	27513,27
573,691	27644,34
573,885	27224,5
574,079	27738,54
574,273	26962,36
574,467	27558,32
574,661	27445,68
574,854	27605,42
575,048	27394,48
575,242	27503,03
575,436	27292,08
575,63	27417,01
575,823	27068,86
576,017	27582,9
576,211	26870,2
576,405	27283,89
576,598	26737,09
576,792	26763,71
576,986	26839,48
577,18	26268,1
577,373	26513,86
577,567	26909,11
577,761	26720,7
577,954	27005,37
578,148	26892,73
578,341	27337,14
578,535	26966,46
578,729	27431,35
578,922	26917,31
579,116	27431,35
579,309	27085,24
579,503	27601,33
579,696	27302,32
579,89	27582,9
580,083	27562,42
580,277	27759,02
580,47	27644,34
580,664	27933,1
580,857	27898,28
581,051	27797,93
581,244	27656,62
581,437	28305,83
581,631	27699,63
581,824	28154,28
582,018	27857,32
582,211	28021,16
582,404	28199,34
582,598	27744,69
582,791	27881,9
582,984	27783,6
583,178	27984,3
583,371	28189,1
583,564	27529,65
583,757	27728,3
583,951	27728,3
584,144	27439,54
584,337	26892,73
584,53	27163,06
584,723	26984,89
584,917	27412,92
585,11	27107,77
585,303	27754,93
585,496	26540,48
585,689	27460,02
585,882	26878,4
586,075	27027,9
586,268	26100,17
586,462	26257,86
586,655	25596,37
586,848	25686,48
587,041	24644,06
587,234	24463,84
587,427	23681,52
587,62	23050,74
587,813	22665,72
588,006	22661,63
588,199	22776,31
588,392	22833,66
588,585	23081,46
588,777	23378,42
588,97	23292,4
589,163	23871,98
589,356	23620,08
589,549	23628,27
589,742	23677,42
589,935	23478,77
590,128	23476,72
590,32	23658,99
590,513	23077,37
590,706	23626,22
590,899	23575,02
591,092	23673,32
591,284	23626,22
591,477	23960,04
591,67	24136,17
591,863	24216,04
592,055	23941,61
592,248	24375,78
592,441	23796,2
592,633	24041,96
592,826	23341,55
593,019	23456,24
593,211	23398,9
593,404	23314,93
593,596	23771,63
593,789	23556,59
593,982	23529,97
594,174	23544,3
594,367	23681,52
594,559	24265,19
594,752	23585,26
594,944	23568,88
595,137	24175,08
595,329	23665,13
595,522	24121,83
595,714	23892,46
595,907	23904,74
596,099	23771,63
596,292	23736,81
596,484	24185,32
596,676	23642,6
596,869	24095,21
597,061	23898,6
597,253	23587,31
597,446	23839,21
597,638	24113,64
597,83	23871,98
598,023	24025,57
598,215	24146,4
598,407	24179,17
598,6	23759,34
598,792	24216,04
598,984	23917,03
599,176	23863,79
599,369	23849,45
599,561	24084,97
599,753	23740,91
599,945	23847,4
600,137	23951,85
600,329	23771,63
600,522	23288,31
600,714	23755,24
600,906	23478,77
601,098	24269,28
601,29	23806,44
601,482	24009,19
601,674	23867,88
601,866	24259,04
602,058	23927,27
602,25	24170,98
602,442	24066,53
602,634	24185,32
602,826	23792,11
603,018	23753,19
603,21	24170,98
603,402	24205,8
603,594	24091,11
603,786	23941,61
603,978	23730,67
604,17	23654,89
604,362	23720,43
604,554	23871,98
604,745	23845,35
604,937	24021,48
605,129	23646,7
605,321	23613,93
605,513	23650,8
605,704	23646,7
605,896	23507,44
606,088	23615,98
606,28	23065,08
606,471	23179,76
606,663	23222,77
606,855	23106,04
607,047	23159,28
607,238	23024,12
607,43	22272,51
607,622	22966,77
607,813	22794,75
608,005	22780,41
608,197	22368,77
608,388	22505,98
608,58	22546,94
608,771	22589,95
608,963	22331,9
609,154	22530,56
609,346	21983,75
609,537	22503,93
609,729	22528,51
609,921	22426,11
610,112	21846,54
610,303	22123,01
610,495	21891,59
610,686	21934,6
610,878	21740,04
611,069	21758,47
611,261	21928,45
611,452	21428,75
611,643	21438,99
611,835	21447,18
612,026	21058,07
612,217	21410,32
612,409	21135,89
612,6	21285,39
612,791	20994,58
612,983	21246,48
613,174	21058,07
613,365	21072,4
613,557	20812,31
613,748	21041,68
613,939	20660,76
614,13	20742,68
614,321	20515,36
614,513	20537,88
614,704	20216,35
614,895	20470,3
615,086	19853,86
615,277	20247,07
615,468	20263,46
615,659	20769,3
615,851	20064,8
616,042	20337,18
616,233	20363,81
616,424	20853,27
616,615	20464,16
616,806	20400,67
616,997	20357,66
617,188	20101,67
617,379	20511,26
617,57	20380,19
617,761	20625,95
617,952	20599,32
618,143	20488,73
618,334	20912,66
618,524	20558,36
618,715	20490,78
618,906	20800,02
619,097	20707,87
619,288	20832,79
619,479	20746,78
619,67	20527,64
619,86	20689,43
620,051	20744,73
620,242	20859,42
620,433	20494,88
620,624	20922,9
620,814	20781,59
621,005	20871,7
621,196	20554,27
621,386	20668,95
621,577	20533,79
621,768	20716,06
621,958	20505,12
622,149	20765,21
622,34	20711,96
622,53	20523,55
622,721	20242,98
622,912	20578,84
623,102	20580,89
623,293	20625,95
623,483	20695,58
623,674	20273,7
623,864	20681,24
624,055	20691,48
624,245	20627,99
624,436	20464,16
624,626	20638,23
624,817	20701,72
625,007	20537,88
625,198	20869,65
625,388	20621,85
625,579	20820,5
625,769	20587,04
625,959	20228,64
626,15	19864,1
626,34	19890,73
626,531	20007,46
626,721	20070,95
626,911	19622,44
627,101	20390,43
627,292	19894,82
627,482	20066,85
627,672	20007,46
627,863	20073
628,053	20001,32
628,243	20062,76
628,433	19429,93
628,623	19874,34
628,814	19866,15
629,004	20136,48
629,194	20087,33
629,384	20046,37
629,574	19954,21
629,764	20144,67
629,955	19823,14
630,145	19872,29
630,335	19841,57
630,525	19984,93
630,715	19540,52
630,905	20111,91
631,095	20064,8
631,285	20240,93
631,475	19939,88
631,665	20453,92
631,855	20199,97
632,045	20085,28
632,235	20197,92
632,425	20183,59
632,615	20275,74
632,805	20355,61
632,994	19708,46
633,184	20410,91
633,374	20408,86
633,564	20144,67
633,754	20236,83
633,944	20363,81
634,133	20040,23
634,323	20431,39
634,513	19948,07
634,703	20054,56
634,893	20232,74
635,082	20169,25
635,272	19870,25
635,462	20320,8
635,651	20474,4
635,841	20212,26
636,031	20279,84
636,221	20277,79
636,41	20261,41
636,6	20240,93
636,789	20228,64
636,979	20216,35
637,169	20126,24
637,358	19882,53
637,548	20363,81
637,737	19954,21
637,927	19810,86
638,116	19743,27
638,306	19702,31
638,495	19864,1
638,685	19474,99
638,874	19814,95
639,064	19372,59
639,253	19823,14
639,443	19456,56
639,632	19296,81
639,822	19028,53
640,011	19499,56
640,2	19460,65
640,39	19483,18
640,579	19511,85
640,768	19307,05
640,958	19143,22
641,147	19364,4
641,336	19399,21
641,526	19329,58
641,715	19208,75
641,904	19599,91
642,093	19030,58
642,283	19343,92
642,472	18852,41
642,661	18991,67
642,85	19030,58
643,039	18997,81
643,228	18831,93
643,418	18844,21
643,607	18911,8
643,796	18682,42
643,985	18612,79
644,174	18393,66
644,363	18395,71
644,552	18498,11
644,741	17869,38
644,93	17904,2
645,119	17617,48
645,308	17879,62
645,497	17447,5
645,686	17476,17
645,875	17166,93
646,064	17199,69
646,253	16935,51
646,442	17179,22
646,631	17011,28
646,82	16968,27
647,009	16826,96
647,198	16751,19
647,387	16849,49
647,575	16534,11
647,764	17189,46
647,953	16661,08
648,142	16478,81
648,331	16792,15
648,519	16601,69
648,708	16978,51
648,897	16904,79
649,086	17183,31
649,274	16900,69
649,463	16687,7
649,652	16699,99
649,84	16671,32
650,029	16376,41
650,218	16521,82
650,406	16527,96
650,595	16630,36
650,784	16890,45
650,972	17031,76
651,161	16712,28
651,349	17031,76
651,538	16831,06
651,726	16861,78
651,915	16923,22
652,104	17095,25
652,292	16878,16
652,481	16710,23
652,669	17062,48
652,857	16786,01
653,046	16460,38
653,234	16689,75
653,423	16210,53
653,611	16208,48
653,8	16050,78
653,988	15624,81
654,176	15028,85
654,365	14895,73
654,553	14850,67
654,741	14647,93
654,93	14430,84
655,118	14387,83
655,306	14682,74
655,494	14756,47
655,683	15233,64
655,871	15260,27
656,059	15454,83
656,247	15733,35
656,436	15479,4
656,624	15682,15
656,812	15571,56
657	15983,2
657,188	15952,48
657,376	15845,99
657,564	15942,24
657,753	15866,47
657,941	15704,68
658,129	16300,64
658,317	16198,24
658,505	16212,57
658,693	16126,56
658,881	16231,01
659,069	16050,78
659,257	16366,17
659,445	16327,26
659,633	16235,1
659,821	16573,02
660,009	16579,16
660,197	16224,86
660,384	16454,23
660,572	16550,49
660,76	16439,9
660,948	16304,73
661,136	16144,99
661,324	16165,47
661,512	16409,18
661,699	16304,73
661,887	16190,05
662,075	16155,23
662,263	16147,04
662,451	16241,25
662,638	16040,54
662,826	15985,25
663,014	16534,11
663,201	16028,26
663,389	16056,93
663,577	16200,29
663,764	16284,25
663,952	16073,31
664,14	16005,73
664,327	15831,65
664,515	16013,92
664,702	15538,79
664,89	15682,15
665,078	15573,61
665,265	15905,38
665,453	15368,81
665,64	15577,7
665,828	15579,75
666,015	15544,94
666,203	15753,83
666,39	15751,78
666,578	15673,96
666,765	15479,4
666,952	15774,31
667,14	15680,1
667,327	15587,94
667,515	15551,08
667,702	15450,73
667,889	15567,46
668,077	15413,87
668,264	15420,01
668,451	15288,94
668,638	15385,19
668,826	15172,21
669,013	15004,27
669,2	15377
669,388	15262,32
669,575	14981,74
669,762	15049,33
669,949	14842,48
670,136	15962,72
670,323	15014,51
670,511	15063,66
670,698	14959,22
670,885	14891,63
671,072	14633,59
671,259	15139,44
671,446	14711,41
671,633	14924,4
671,82	14772,85
672,007	14869,11
672,194	14635,64
672,381	14678,65
672,568	14789,24
672,755	14711,41
672,942	14561,91
673,129	14572,15
673,316	14479,99
673,503	14545,53
673,69	14518,9
673,877	14469,75
674,064	14432,89
674,251	14269,05
674,437	14350,97
674,624	14439,03
674,811	14426,75
674,998	14068,35
675,185	14199,42
675,372	14338,68
675,558	14129,79
675,745	14248,57
675,932	14342,78
676,119	14305,92
676,305	14221,95
676,492	13951,62
676,679	13947,52
676,865	14068,35
677,052	14152,32
677,239	14140,03
677,425	13740,68
677,612	14189,18
677,798	13990,53
677,985	13908,61
678,172	13957,76
678,358	13834,88
678,545	13699,72
678,731	13781,64
678,918	13591,17
679,104	13562,5
679,291	13703,81
679,477	13601,41
679,664	13671,04
679,85	13585,03
680,036	13572,74
680,223	13263,5
680,409	13441,67
680,596	13644,42
680,782	13413
680,968	13417,1
681,155	13376,14
681,341	13369,99
681,527	13187,72
681,714	13310,6
681,9	13310,6
682,086	12927,63
682,272	12843,67
682,459	12958,35
682,645	12868,24
682,831	13027,98
683,017	12941,97
683,204	13044,37
683,39	12829,33
683,576	12677,78
683,762	12679,83
683,948	12671,64
684,134	12636,82
684,32	12569,24
684,506	12133,02
684,693	11838,11
684,879	11070,12
685,065	10779,31
685,251	9792,19
685,437	9231,05
685,623	9048,78
685,809	8839,89
685,995	8860,37
686,181	9009,87
686,366	9216,71
686,552	9272,01
686,738	9308,87
686,924	9235,14
687,11	9108,17
687,296	9134,79
687,482	9142,99
687,668	9091,79
687,853	8985,29
688,039	9171,66
688,225	8891,09
688,411	9155,27
688,597	9366,21
688,782	9444,04
688,968	9173,71
689,154	9485
689,34	9712,32
689,525	9714,37
689,711	9556,68
689,897	9859,77
690,082	9990,84
690,268	9831,1
690,454	9810,62
690,639	9890,49
690,825	9814,72
691,01	9691,84
691,196	9740,99
691,381	9708,23
691,567	9374,41
691,753	9591,49
691,938	9341,64
692,124	9284,3
692,309	9294,54
692,494	9272,01
692,68	9368,26
692,865	9339,59
693,051	9304,78
693,236	9370,31
693,422	9392,84
693,607	9480,9
693,792	9128,65
693,978	9650,88
694,163	9515,72
694,348	9487,04
694,534	9581,25
694,719	9538,24
694,904	9757,38
695,089	9759,42
695,275	9999,04
695,46	9718,47
695,645	9958,08
695,83	9974,46
696,016	10017,47
696,201	9675,46
696,386	9640,64
696,571	9910,97
696,756	9724,61
696,941	9685,7
697,126	9505,48
697,311	9378,5
697,497	9505,48
697,682	9534,15
697,867	9337,54
698,052	9396,93
698,237	9040,59
698,422	9235,14
698,607	9122,51
698,792	9106,12
698,977	8903,37
699,162	8909,52
699,347	9026,25
699,531	8950,48
699,716	8841,93
699,901	8688,34
700,086	8790,74
700,271	8909,52
700,456	8723,15
700,641	8577,75
700,825	8735,44
701,01	8633,04
701,195	8841,93
701,38	8809,17
701,565	8911,57
701,749	9126,6
701,934	8854,22
702,119	9136,84
702,303	8981,2
702,488	9022,16
702,673	9077,45
702,857	8989,39
703,042	9022,16
703,227	8977,1
703,411	9018,06
703,596	9009,87
703,78	8897,23
703,965	9091,79
704,15	8858,32
704,334	9083,59
704,519	8710,86
704,703	8958,67
704,888	9073,35
705,072	9136,84
705,257	8747,73
705,441	9079,5
705,625	9081,55
705,81	8903,37
705,994	9044,68
706,179	8878,8
706,363	8983,24
706,547	8973
706,732	8893,13
706,916	8915,66
707,1	8755,92
707,285	8919,76
707,469	9016,01
707,653	8909,52
707,837	8837,84
708,022	8782,54
708,206	9038,54
708,39	8698,58
708,574	8927,95
708,759	8876,75
708,943	8878,8
709,127	8776,4
709,311	8778,45
709,495	8714,96
709,679	8618,71
709,863	8714,96
710,047	8700,62
710,231	8864,46
710,415	8524,5
710,6	8639,19
710,784	8567,51
710,968	8731,34
711,152	8733,39
711,336	8530,64
711,519	8573,65
711,703	8473,3
711,887	8577,75
712,071	8469,2
712,255	8282,84
712,439	8329,94
712,623	8239,83
712,807	8219,35
712,991	8123,1
713,174	8094,43
713,358	8149,72
713,542	8049,37
713,726	8051,42
713,91	8000,22
714,093	7920,35
714,277	7854,81
714,461	7688,93
714,645	7391,97
714,828	7117,54
715,012	6812,4
715,196	6499,06
715,379	6265,59
715,563	6138,62
715,747	5706,49
715,93	5634,82
716,114	5399,3
716,297	5413,63
716,481	5233,41
716,664	5094,15
716,848	5010,18
717,031	4913,93
717,215	4911,88
717,398	4629,26
717,582	4610,83
717,765	4569,87
717,949	4449,04
718,132	4365,07
718,316	4391,7
718,499	4535,06
718,682	4530,96
718,866	4551,44
719,049	4846,35
719,233	4903,69
719,416	5270,28
719,599	5438,21
719,782	5395,2
719,966	5749,5
720,149	5681,92
720,332	5823,23
720,515	5847,8
720,699	6009,59
720,882	6013,69
721,065	5733,12
721,248	5948,15
721,431	5765,89
721,615	5511,94
721,798	5499,65
721,981	5350,15
722,164	5126,92
722,347	5079,82
722,53	5167,88
722,713	5171,97
722,896	4975,37
723,079	4932,36
723,262	4905,74
723,445	4895,5
723,628	4954,89
723,811	4805,39
723,994	4864,78
724,177	4827,92
724,36	4889,35
724,543	4829,96
724,726	4797,2
724,909	4889,35
725,091	4915,98
725,274	4793,1
725,457	4854,54
725,64	4731,66
725,823	4858,64
726,006	4672,27
726,188	4746
726,371	4883,21
726,554	4799,24
726,737	4791,05
726,919	4643,6
727,102	4756,24
727,285	4723,47
727,467	4815,63
727,65	4729,61
727,833	4791,05
728,015	4975,37
728,198	4862,73
728,38	4838,16
728,563	4752,14
728,746	4811,53
728,928	4750,09
729,111	4627,21
729,293	4938,51
729,476	4619,02
729,658	4789
729,841	4926,22
730,023	4961,03
730,205	5051,14
730,388	5071,62
730,57	5165,83
730,753	5552,9
730,935	5475,07
731,117	5479,17
731,3	5362,44
731,482	5608,19
731,664	5479,17
731,847	5790,46
732,029	5767,93
732,211	5925,63
732,394	5853,95
732,576	6023,93
732,758	5690,11
732,94	5870,33
733,122	5915,39
733,305	5831,42
733,487	5794,56
733,669	5950,2
733,851	5729,02
734,033	6073,08
734,215	5804,8
734,397	5608,19
734,58	5720,83
734,762	5649,15
734,944	5673,73
735,126	5561,09
735,308	5747,45
735,49	5683,97
735,672	5741,31
735,854	5815,04
736,036	5972,73
736,218	5817,08
736,399	5751,55
736,581	5743,36
736,763	5729,02
736,945	5798,65
737,127	5688,06
737,309	5927,67
737,491	5802,75
737,672	5638,91
737,854	5649,15
738,036	5724,93
738,218	5776,13
738,4	5790,46
738,581	5868,28
738,763	5673,73
738,945	5765,89
739,127	5810,94
739,308	5839,61
739,49	5747,45
739,672	5769,98
739,853	5714,69
740,035	5808,89
740,216	5892,86
740,398	5821,18
740,58	5722,88
740,761	5769,98
740,943	5716,73
741,124	5886,72
741,306	5925,63
741,487	5677,82
741,669	5884,67
741,85	5675,77
742,032	5870,33
742,213	5774,08
742,394	5772,03
742,576	5903,1
742,757	5888,76
742,939	5929,72
743,12	5645,06
743,301	5772,03
743,483	5731,07
743,664	5524,23
743,845	5602,05
744,027	5673,73
744,208	5798,65
744,389	5823,23
744,57	5790,46
744,752	5688,06
744,933	5651,2
745,114	5561,09
745,295	5700,35
745,476	5614,34
745,657	5665,53
745,839	5626,62
746,02	5669,63
746,201	5632,77
746,382	5634,82
746,563	5755,65
746,744	5634,82
746,925	5470,98
747,106	5624,58
747,287	5587,71
747,468	5569,28
747,649	5614,34
747,83	5571,33
748,011	5630,72
748,192	5720,83
748,373	5583,62
748,554	5493,51
748,735	5681,92
748,915	5620,48
749,096	5419,78
749,277	5534,46
749,458	5585,66
749,639	5745,41
749,82	5774,08
750	5479,17
750,181	5556,99
750,362	5540,61
750,543	5737,21
750,723	5645,06
750,904	5714,69
751,085	5610,24
751,265	5583,62
751,446	5616,38
751,627	5616,38
751,807	5765,89
751,988	5683,97
752,169	5780,22
752,349	5800,7
752,53	5726,97
752,71	5546,75
752,891	5882,62
753,071	5913,34
753,252	5755,65
753,432	5722,88
753,613	5645,06
753,793	5839,61
753,974	5894,91
754,154	5688,06
754,334	5757,69
754,515	5729,02
754,695	5806,84
754,876	5698,3
755,056	5708,54
755,236	5823,23
755,417	5784,32
755,597	5800,7
755,777	5737,21
755,957	5774,08
756,138	5880,57
756,318	5698,3
756,498	5700,35
756,678	5636,86
756,859	5595,9
757,039	5413,63
757,219	5317,38
757,399	4875,02
757,579	4356,88
757,759	3797,79
757,939	3160,87
758,119	2638,64
758,3	2259,76
758,48	1852,22
758,66	1372,99
758,84	1102,66
759,02	979,78
759,2	881,48
759,38	852,81
759,56	1108,8
759,74	1188,68
759,919	1266,5
760,099	1581,89
760,279	1559,36
760,459	1626,94
760,639	1692,48
760,819	1739,58
760,999	1366,85
761,178	1403,71
761,358	1514,3
761,538	1350,46
761,718	1436,48
761,898	1407,81
762,077	1424,19
762,257	1532,73
762,437	1696,57
762,616	1571,65
762,796	1745,72
762,976	1905,46
763,155	2059,06
763,335	2153,27
763,515	2358,07
763,694	2497,33
763,874	2530,09
764,053	2784,04
764,233	2954,02
764,413	2999,08
764,592	3193,64
764,772	3535,65
764,951	3486,5
765,131	3652,38
765,31	3726,11
765,489	3726,11
765,669	3930,91
765,848	4172,57
766,028	4145,94
766,207	4199,19
766,386	4188,95
766,566	4342,55
766,745	4320,02
766,924	4391,7
767,104	4403,99
767,283	4412,18
767,462	4346,64
767,642	4365,07
767,821	4381,46
768	4365,07
768,179	4340,5
768,358	4539,15
768,538	4463,38
768,717	4543,25
768,896	4381,46
769,075	4530,96
769,254	4211,48
769,433	4467,47
769,612	4508,43
769,791	4442,9
769,97	4236,05
770,149	4365,07
770,328	4123,41
770,507	4283,16
770,686	4154,13
770,865	4303,64
771,044	4305,68
771,223	4223,76
771,402	4125,46
771,581	4217,62
771,76	4025,11
771,939	4238,1
772,118	3992,34
772,297	4057,88
772,475	4160,28
772,654	4041,5
772,833	4037,4
773,012	3965,72
773,191	3885,85
773,369	3865,37
773,548	4182,81
773,727	3830,55
773,906	3889,95
774,084	3867,42
774,263	3939,1
774,442	3912,47
774,62	3902,23
774,799	3838,75
774,977	3783,45
775,156	3814,17
775,335	3742,49
775,513	3758,88
775,692	3668,77
775,87	3812,12
776,049	3570,46
776,227	3658,53
776,406	3674,91
776,584	3629,85
776,763	3535,65
776,941	3509,02
777,119	3504,93
777,298	3554,08
777,476	3578,65
777,655	3502,88
777,833	3377,95
778,011	3449,63
778,19	3461,92
778,368	3427,11
778,546	3418,91
778,725	3549,98
778,903	3244,84
779,081	3363,62
779,259	3189,54
779,437	3316,51
779,616	3281,7
779,794	3271,46
779,972	3351,33
780,15	3226,4
780,328	3273,51
780,506	3222,31
780,685	3222,31
780,863	3210,02
781,041	3167,01
781,219	3236,64
781,397	3220,26
781,575	3046,18
781,753	3025,7
781,931	2972,46
782,109	3068,71
782,287	3021,61
782,465	3070,76
782,643	3009,32
782,82	3087,14
782,998	3005,22
783,176	2939,69
783,354	2980,65
783,532	2941,74
783,71	3050,28
783,888	2837,29
784,065	2921,26
784,243	2913,06
784,421	2870,06
784,599	2796,33
784,776	2812,71
784,954	2775,85
785,132	2786,09
785,31	2609,97
785,487	2657,07
785,665	2622,25
785,842	2751,28
786,02	2763,56
786,198	2581,29
786,375	2638,64
786,553	2560,81
786,73	2536,24
786,908	2499,38
787,085	2583,34
787,263	2366,26
787,44	2480,94
787,618	2372,4
787,795	2421,55
787,973	2335,54
788,15	2327,35
788,328	2300,72
788,505	2382,64
788,682	2304,82
788,86	2396,98
789,037	2396,98
789,215	2364,21
789,392	2276,15
789,569	2327,35
789,746	2251,57
789,924	2280,24
790,101	2431,79
790,278	2224,95
790,455	2229,04
790,633	2218,8
790,81	2212,66
790,987	2163,51
791,164	2183,99
791,341	2218,8
791,518	2239,28
791,695	2345,78
791,873	2263,86
792,05	2292,53
792,227	2208,56
792,404	2222,9
792,581	2192,18
792,758	2231,09
792,935	2100,02
793,112	2196,28
793,289	2210,61
793,466	2054,97
793,643	2153,27
793,82	2147,12
793,996	2003,77
794,173	1948,47
794,35	1948,47
794,527	1971
794,704	1952,57
794,881	1944,38
795,057	2030,39
795,234	2009,91
795,411	1932,09
795,588	2001,72
795,765	1954,62
795,941	2030,39
796,118	1938,23
796,295	2028,34
796,471	1952,57
796,648	2014,01
796,825	2032,44
797,001	2018,1
797,178	1989,43
797,354	1997,62
797,531	1940,28
797,708	1833,79
797,884	2026,29
798,061	1872,7
798,237	1764,15
798,414	1856,31
798,59	1813,31
798,767	1792,83
798,943	1880,89
799,119	1833,79
799,296	1837,88
799,472	1860,41
799,649	1733,43
799,825	1692,48
800,001	1651,52
800,178	1667,9
800,354	1786,68
800,53	1751,87
800,707	1639,23
800,883	1610,56
801,059	1741,63
801,235	1794,87
801,411	1710,91
801,588	1530,69
801,764	1786,68
801,94	1682,24
802,116	1682,24
802,292	1559,36
802,468	1663,8
802,645	1628,99
802,821	1694,52
802,997	1715
803,173	1633,08
803,349	1583,93
803,525	1710,91
803,701	1667,9
803,877	1612,6
804,053	1774,39
804,229	1784,63
804,405	1809,21
804,581	1598,27
804,756	1778,49
804,932	1682,24
805,108	1641,28
805,284	1643,32
805,46	1690,43
805,636	1606,46
805,812	1559,36
805,987	1635,13
806,163	1604,41
806,339	1684,28
806,515	1522,49
806,69	1530,69
806,866	1481,53
807,042	1510,21
807,217	1592,13
807,393	1459,01
807,569	1534,78
807,744	1436,48
807,92	1485,63
808,096	1284,93
808,271	1504,06
808,447	1450,82
808,622	1428,29
808,798	1383,23
808,973	1416
809,149	1356,61
809,324	1436,48
809,5	1321,79
809,675	1420,1
809,851	1430,34
810,026	1422,14
810,201	1219,39
810,377	1272,64
810,552	1309,51
810,728	1370,94
810,903	1186,63
811,078	1266,5
811,253	1162,05
811,429	1135,43
811,604	1047,37
811,779	1094,47
811,955	1145,67
812,13	1026,89
812,305	1030,98
812,48	963,4
812,655	985,93
812,83	1049,41
813,006	928,58
813,181	850,76
813,356	883,53
813,531	1008,45
813,706	906,06
813,881	817,99
814,056	846,66
814,231	904,01
814,406	699,21
814,581	791,37
814,756	789,32
814,931	760,65
815,106	854,86
815,281	817,99
815,456	817,99
815,631	828,23
815,805	883,53
815,98	768,84
816,155	725,83
816,33	809,8
816,505	799,56
816,68	889,67
816,854	787,27
817,029	865,1
817,204	766,79
817,379	772,94
817,553	899,91
817,728	867,14
817,903	805,71
818,077	891,72
818,252	858,95
818,427	973,64
818,601	949,06
818,776	906,06
818,95	949,06
819,125	981,83
819,299	973,64
819,474	1006,41
819,648	867,14
819,823	963,4
819,997	1084,23
820,172	801,61
820,346	840,52
820,521	813,9
820,695	693,07
820,87	629,58
821,044	572,24
821,218	703,31
821,393	674,64
821,567	633,68
821,741	529,23
821,916	703,31
822,09	744,27
822,264	867,14
822,438	713,55
822,613	795,47
822,787	955,21
822,961	875,34
823,135	842,57
823,309	924,49
823,483	842,57
823,658	942,92
823,832	865,1
824,006	781,13
824,18	914,25
824,354	828,23
824,528	944,97
824,702	949,06
824,876	826,18
825,05	1033,03
825,224	867,14
825,398	834,38
825,572	799,56
825,746	715,59
825,92	813,9
826,093	760,65
826,267	848,71
826,441	791,37
826,615	756,55
826,789	764,75
826,963	826,18
827,136	848,71
827,31	740,17
827,484	748,36
827,658	727,88
827,831	699,21
828,005	754,51
828,179	744,27
828,353	774,99
828,526	727,88
828,7	807,75
828,873	820,04
829,047	813,9
829,221	752,46
829,394	791,37
829,568	809,8
829,741	752,46
829,915	764,75
830,088	842,57
830,262	863,05
830,435	815,94
830,609	863,05
830,782	805,71
830,956	766,79
831,129	807,75
831,302	709,45
831,476	715,59
831,649	762,7
831,822	781,13
831,996	756,55
832,169	809,8
832,342	764,75
832,516	762,7
832,689	721,74
832,862	844,62
833,035	793,42
833,209	805,71
833,382	742,22
833,555	674,64
833,728	768,84
833,901	826,18
834,074	805,71
834,247	842,57
834,42	922,44
834,594	727,88
834,767	889,67
834,94	861
835,113	871,24
835,286	785,23
835,459	938,82
835,632	756,55
835,805	758,6
835,977	858,95
836,15	834,38
836,323	727,88
836,496	768,84
836,669	795,47
836,842	824,14
837,015	793,42
837,188	703,31
837,36	854,86
837,533	832,33
837,706	766,79
837,879	852,81
838,051	787,27
838,224	846,66
838,397	699,21
838,569	764,75
838,742	699,21
838,915	817,99
839,087	783,18
839,26	791,37
839,433	797,51
839,605	912,2
839,778	611,15
839,95	785,23
840,123	717,64
840,295	742,22
840,468	752,46
840,64	832,33
840,813	772,94
840,985	744,27
841,158	643,92
841,33	793,42
841,502	799,56
841,675	734,03
841,847	748,36
842,019	703,31
842,192	676,68
842,364	748,36
842,536	703,31
842,709	719,69
842,881	641,87
843,053	662,35
843,225	693,07
843,398	746,31
843,57	750,41
843,742	754,51
843,914	650,06
844,086	830,28
844,258	611,15
844,43	752,46
844,602	670,54
844,775	627,53
844,947	670,54
845,119	625,48
845,291	719,69
845,463	723,79
845,635	621,39
845,807	645,96
845,979	672,59
846,15	684,87
846,322	717,64
846,494	652,11
846,666	656,2
846,838	717,64
847,01	742,22
847,182	719,69
847,354	613,2
847,525	600,91
847,697	680,78
847,869	594,76
848,041	701,26
848,212	588,62
848,384	553,8
848,556	617,29
848,727	605
848,899	564,04
849,071	623,44
849,242	658,25
849,414	662,35
849,585	572,24
849,757	498,51
849,929	584,52
850,1	527,18
850,272	547,66
850,443	570,19
850,615	643,92
850,786	514,89
850,958	586,57
851,129	553,8
851,3	650,06
851,472	557,9
851,643	521,04
851,815	574,28
851,986	551,76
852,157	547,66
852,329	568,14
852,5	486,22
852,671	545,61
852,842	527,18
853,014	406,35
853,185	490,32
853,356	449,36
853,527	553,8
853,698	553,8
853,87	432,97
854,041	584,52
854,212	502,61
854,383	547,66
854,554	566,09
854,725	562
854,896	529,23
855,067	637,77
855,238	535,37
855,409	516,94
855,58	529,23
855,751	518,99
855,922	568,14
856,093	580,43
856,264	461,65
856,435	580,43
856,606	502,61
856,777	531,28
856,948	496,46
857,118	441,17
857,289	480,08
857,46	641,87
857,631	480,08
857,802	531,28
857,972	502,61
858,143	533,33
858,314	449,36
858,484	439,12
858,655	439,12
858,826	514,89
858,996	494,41
859,167	480,08
859,338	521,04
859,508	449,36
859,679	475,98
859,849	406,35
860,02	482,13
860,19	482,13
860,361	469,84
860,531	428,88
860,702	557,9
860,872	437,07
861,043	498,51
861,213	469,84
861,384	414,54
861,554	346,96
861,724	424,78
861,895	410,45
862,065	523,09
862,235	394,06
862,406	461,65
862,576	379,73
862,746	478,03
862,916	420,69
863,087	504,65
863,257	494,41
863,427	375,63
863,597	342,86
863,767	465,74
863,937	389,97
864,108	439,12
864,278	443,21
864,448	365,39
864,618	424,78
864,788	332,62
864,958	449,36
865,128	289,62
865,298	457,55
865,468	457,55
865,638	340,82
865,808	422,73
865,978	306
866,148	447,31
866,318	322,38
866,487	422,73
866,657	320,34
866,827	457,55
866,997	351,06
867,167	432,97
867,337	340,82
867,506	445,26
867,676	432,97
867,846	330,58
868,016	359,25
868,185	312,14
868,355	398,16
868,525	383,82
868,694	291,66
868,864	449,36
869,034	396,11
869,203	301,9
869,373	373,58
869,542	457,55
869,712	293,71
869,881	316,24
870,051	281,43
870,22	392,02
870,39	349,01
870,559	342,86
870,729	271,19
870,898	373,58
871,068	353,1
871,237	285,52
871,406	283,47
871,576	373,58
871,745	297,81
871,914	252,75
872,084	320,34
872,253	334,67
872,422	275,28
872,591	367,44
872,761	240,47
872,93	562
873,099	244,56
873,268	258,9
873,437	256,85
873,607	236,37
873,776	310,1
873,945	349,01
874,114	269,14
874,283	267,09
874,452	381,78
874,621	244,56
874,79	336,72
874,959	265,04
875,128	252,75
875,297	267,09
875,466	299,86
875,635	367,44
875,804	285,52
875,973	228,18
876,142	328,53
876,31	242,51
876,479	236,37
876,648	289,62
876,817	244,56
876,986	326,48
877,155	306
877,323	244,56
877,492	275,28
877,661	312,14
877,829	269,14
877,998	273,23
878,167	275,28
878,335	228,18
878,504	213,84
878,673	248,66
878,841	228,18
879,01	250,71
879,178	228,18
879,347	242,51
879,515	203,6
879,684	234,32
879,852	224,08
880,021	199,51
880,189	238,42
880,358	217,94
880,526	355,15
880,695	150,36
880,863	246,61
881,031	201,55
881,2	252,75
881,368	193,36
881,536	291,66
881,705	183,12
881,873	248,66
882,041	281,43
882,21	211,79
882,378	252,75
882,546	170,83
882,714	199,51
882,882	211,79
883,05	195,41
883,219	242,51
883,387	211,79
883,555	199,51
883,723	148,31
883,891	195,41
884,059	195,41
884,227	228,18
884,395	203,6
884,563	273,23
884,731	201,55
884,899	293,71
885,067	187,22
885,235	148,31
885,403	242,51
885,571	185,17
885,739	166,74
