Data from USB4F035431__12__14-19-31-085.txt Node

Date: Wed Feb 12 14:19:31 CET 2025
User: Versuch 234
Spectrometer: USB4F03543
Trigger mode: 4
Integration Time (sec): 1,000000E-1
Scans to average: 1
Electric dark correction enabled: true
Nonlinearity correction enabled: false
Boxcar width: 0
XAxis mode: Wavelengths
Number of Pixels in Spectrum: 3648
>>>>>Begin Spectral Data<<<<<
179,969	-146,43
180,181	-146,43
180,394	-146,43
180,606	-154,62
180,819	-66,56
181,031	-60,42
181,243	148,48
181,456	-66,56
181,668	39,94
181,88	-13,31
182,093	-52,22
182,305	-27,65
182,518	-3,07
182,73	5,12
182,942	25,6
183,155	13,31
183,367	-9,22
183,579	-3,07
183,791	33,79
184,004	-1,02
184,216	-1,02
184,428	-15,36
184,641	-5,12
184,853	-48,13
185,065	-3,07
185,277	44,03
185,49	46,08
185,702	-103,42
185,914	-44,03
186,126	1,02
186,338	19,46
186,551	41,98
186,763	82,94
186,975	-35,84
187,187	-64,51
187,399	58,37
187,612	15,36
187,824	58,37
188,036	19,46
188,248	82,94
188,46	31,74
188,672	25,6
188,885	-15,36
189,097	91,13
189,309	-15,36
189,521	29,7
189,733	-5,12
189,945	-27,65
190,157	70,65
190,369	33,79
190,581	31,74
190,794	74,75
191,006	35,84
191,218	21,5
191,43	-3,07
191,642	-48,13
191,854	9,22
192,066	58,37
192,278	62,46
192,49	7,17
192,702	72,7
192,914	56,32
193,126	-35,84
193,338	97,28
193,55	62,46
193,762	33,79
193,974	15,36
194,186	-11,26
194,398	-37,89
194,61	-25,6
194,822	41,98
195,034	48,13
195,246	97,28
195,457	80,89
195,669	123,9
195,881	-27,65
196,093	58,37
196,305	9,22
196,517	-58,37
196,729	7,17
196,941	-39,94
197,153	105,47
197,365	87,04
197,576	-9,22
197,788	-56,32
198	80,89
198,212	78,85
198,424	17,41
198,636	-1,02
198,847	-1,02
199,059	84,99
199,271	-27,65
199,483	17,41
199,695	-35,84
199,906	64,51
200,118	-23,55
200,33	64,51
200,542	336,89
200,753	1,02
200,965	-9,22
201,177	7,17
201,389	50,18
201,6	-44,03
201,812	-5,12
202,024	21,5
202,235	58,37
202,447	91,13
202,659	84,99
202,871	23,55
203,082	-1,02
203,294	-31,74
203,506	62,46
203,717	-7,17
203,929	72,7
204,141	23,55
204,352	58,37
204,564	-17,41
204,775	7,17
204,987	97,28
205,199	52,22
205,41	-33,79
205,622	33,79
205,833	13,31
206,045	-1,02
206,257	25,6
206,468	-21,5
206,68	-37,89
206,891	33,79
207,103	-29,7
207,314	-41,98
207,526	35,84
207,737	11,26
207,949	-13,31
208,16	52,22
208,372	82,94
208,583	-1,02
208,795	37,89
209,006	41,98
209,218	5,12
209,429	31,74
209,641	21,5
209,852	29,7
210,064	25,6
210,275	-13,31
210,487	74,75
210,698	74,75
210,909	-3,07
211,121	74,75
211,332	31,74
211,544	7,17
211,755	33,79
211,966	93,18
212,178	46,08
212,389	113,66
212,6	-17,41
212,812	66,56
213,023	58,37
213,234	78,85
213,446	37,89
213,657	-50,18
213,868	132,09
214,08	58,37
214,291	74,75
214,502	72,7
214,714	-7,17
214,925	31,74
215,136	-50,18
215,347	-15,36
215,559	-56,32
215,77	23,55
215,981	41,98
216,192	5,12
216,404	50,18
216,615	31,74
216,826	72,7
217,037	-50,18
217,249	-46,08
217,46	138,24
217,671	-1,02
217,882	17,41
218,093	-1,02
218,304	-13,31
218,516	-35,84
218,727	7,17
218,938	-52,22
219,149	58,37
219,36	13,31
219,571	58,37
219,782	52,22
219,993	103,42
220,205	9,22
220,416	25,6
220,627	-21,5
220,838	66,56
221,049	175,1
221,26	9,22
221,471	-7,17
221,682	74,75
221,893	33,79
222,104	3,07
222,315	15,36
222,526	44,03
222,737	-1,02
222,948	23,55
223,159	3,07
223,37	99,33
223,581	-27,65
223,792	-27,65
224,003	-1,02
224,214	-29,7
224,425	70,65
224,636	-29,7
224,847	62,46
225,058	41,98
225,269	33,79
225,48	15,36
225,691	9,22
225,902	33,79
226,112	-33,79
226,323	13,31
226,534	74,75
226,745	46,08
226,956	-56,32
227,167	19,46
227,378	-23,55
227,589	1,02
227,799	99,33
228,01	23,55
228,221	1,02
228,432	-56,32
228,643	33,79
228,853	17,41
229,064	-31,74
229,275	21,5
229,486	-11,26
229,697	9,22
229,907	60,42
230,118	82,94
230,329	13,31
230,54	60,42
230,75	54,27
230,961	105,47
231,172	-89,09
231,383	-27,65
231,593	-1,02
231,804	66,56
232,015	99,33
232,225	19,46
232,436	-25,6
232,647	80,89
232,857	91,13
233,068	60,42
233,279	-23,55
233,489	46,08
233,7	-13,31
233,91	-7,17
234,121	37,89
234,332	87,04
234,542	80,89
234,753	-31,74
234,964	19,46
235,174	50,18
235,385	29,7
235,595	103,42
235,806	37,89
236,016	29,7
236,227	7,17
236,437	-48,13
236,648	17,41
236,858	17,41
237,069	-37,89
237,279	-60,42
237,49	-29,7
237,7	27,65
237,911	66,56
238,121	-31,74
238,332	-31,74
238,542	17,41
238,753	35,84
238,963	-70,65
239,174	95,23
239,384	50,18
239,595	-15,36
239,805	-33,79
240,015	7,17
240,226	70,65
240,436	21,5
240,647	58,37
240,857	11,26
241,067	125,95
241,278	168,96
241,488	-23,55
241,698	35,84
241,909	25,6
242,119	46,08
242,329	78,85
242,54	-23,55
242,75	33,79
242,96	-37,89
243,171	5,12
243,381	21,5
243,591	-7,17
243,801	89,09
244,012	66,56
244,222	-25,6
244,432	-21,5
244,642	-23,55
244,853	9,22
245,063	-21,5
245,273	15,36
245,483	64,51
245,694	-7,17
245,904	-7,17
246,114	21,5
246,324	5,12
246,534	60,42
246,744	44,03
246,955	-74,75
247,165	33,79
247,375	72,7
247,585	-31,74
247,795	41,98
248,005	17,41
248,215	50,18
248,425	46,08
248,636	87,04
248,846	-39,94
249,056	48,13
249,266	29,7
249,476	89,09
249,686	66,56
249,896	-46,08
250,106	-23,55
250,316	-35,84
250,526	56,32
250,736	-19,46
250,946	76,8
251,156	70,65
251,366	31,74
251,576	50,18
251,786	39,94
251,996	-37,89
252,206	-56,32
252,416	-15,36
252,626	-58,37
252,836	-66,56
253,046	72,7
253,256	82,94
253,466	-33,79
253,676	-15,36
253,885	33,79
254,095	17,41
254,305	93,18
254,515	60,42
254,725	7,17
254,935	-25,6
255,145	99,33
255,355	82,94
255,564	62,46
255,774	-15,36
255,984	25,6
256,194	-5,12
256,404	7,17
256,614	25,6
256,823	115,71
257,033	25,6
257,243	-25,6
257,453	64,51
257,662	19,46
257,872	82,94
258,082	99,33
258,292	-64,51
258,501	101,37
258,711	205,82
258,921	107,52
259,131	-50,18
259,34	21,5
259,55	7,17
259,76	-76,8
259,969	7,17
260,179	-3,07
260,389	3,07
260,598	58,37
260,808	46,08
261,018	62,46
261,227	91,13
261,437	-1,02
261,647	89,09
261,856	-56,32
262,066	44,03
262,275	82,94
262,485	41,98
262,694	66,56
262,904	68,61
263,114	46,08
263,323	21,5
263,533	-48,13
263,742	-44,03
263,952	23,55
264,161	-21,5
264,371	1,02
264,58	25,6
264,79	-41,98
264,999	-25,6
265,209	39,94
265,418	29,7
265,628	-23,55
265,837	82,94
266,047	60,42
266,256	48,13
266,466	41,98
266,675	91,13
266,884	41,98
267,094	54,27
267,303	58,37
267,513	62,46
267,722	60,42
267,931	56,32
268,141	-19,46
268,35	-35,84
268,559	17,41
268,769	25,6
268,978	9,22
269,187	9,22
269,397	-23,55
269,606	-23,55
269,815	-21,5
270,025	17,41
270,234	25,6
270,443	-58,37
270,653	-25,6
270,862	60,42
271,071	56,32
271,28	-1,02
271,49	62,46
271,699	-9,22
271,908	27,65
272,117	99,33
272,327	-58,37
272,536	68,61
272,745	-52,22
272,954	1,02
273,163	-23,55
273,372	117,76
273,582	-41,98
273,791	9,22
274	74,75
274,209	27,65
274,418	115,71
274,627	113,66
274,836	72,7
275,046	91,13
275,255	95,23
275,464	-39,94
275,673	-1,02
275,882	17,41
276,091	3,07
276,3	27,65
276,509	-17,41
276,718	11,26
276,927	-89,09
277,136	31,74
277,345	13,31
277,554	48,13
277,763	58,37
277,972	41,98
278,181	70,65
278,39	5,12
278,599	17,41
278,808	-25,6
279,017	74,75
279,226	-23,55
279,435	76,8
279,644	25,6
279,853	58,37
280,062	97,28
280,271	-97,28
280,48	-33,79
280,688	25,6
280,897	9,22
281,106	-29,7
281,315	46,08
281,524	19,46
281,733	-3,07
281,942	31,74
282,151	99,33
282,359	1,02
282,568	-48,13
282,777	7,17
282,986	82,94
283,195	44,03
283,403	15,36
283,612	-23,55
283,821	-56,32
284,03	25,6
284,238	-35,84
284,447	23,55
284,656	48,13
284,865	97,28
285,073	-52,22
285,282	35,84
285,491	17,41
285,699	-9,22
285,908	5,12
286,117	-3,07
286,325	29,7
286,534	72,7
286,743	31,74
286,951	5,12
287,16	50,18
287,369	-17,41
287,577	62,46
287,786	7,17
287,995	-25,6
288,203	-1,02
288,412	74,75
288,62	54,27
288,829	29,7
289,037	19,46
289,246	-27,65
289,455	15,36
289,663	15,36
289,872	33,79
290,08	11,26
290,289	95,23
290,497	-62,46
290,706	-19,46
290,914	11,26
291,123	-80,89
291,331	19,46
291,54	113,66
291,748	138,24
291,957	33,79
292,165	17,41
292,373	1,02
292,582	33,79
292,79	5,12
292,999	9,22
293,207	33,79
293,415	35,84
293,624	-64,51
293,832	50,18
294,041	-17,41
294,249	33,79
294,457	-33,79
294,666	48,13
294,874	25,6
295,082	64,51
295,291	54,27
295,499	-19,46
295,707	58,37
295,915	48,13
296,124	41,98
296,332	52,22
296,54	15,36
296,749	-3,07
296,957	140,29
297,165	-44,03
297,373	-11,26
297,581	7,17
297,79	31,74
297,998	13,31
298,206	-82,94
298,414	-15,36
298,622	5,12
298,831	72,7
299,039	-91,13
299,247	72,7
299,455	115,71
299,663	115,71
299,871	17,41
300,08	74,75
300,288	25,6
300,496	74,75
300,704	-13,31
300,912	-54,27
301,12	9,22
301,328	64,51
301,536	66,56
301,744	-5,12
301,952	111,61
302,16	-19,46
302,368	-68,61
302,576	-56,32
302,784	50,18
302,992	33,79
303,2	29,7
303,408	31,74
303,616	-3,07
303,824	50,18
304,032	91,13
304,24	48,13
304,448	17,41
304,656	48,13
304,864	113,66
305,072	66,56
305,28	33,79
305,488	27,65
305,696	41,98
305,904	68,61
306,111	-56,32
306,319	-29,7
306,527	84,99
306,735	39,94
306,943	48,13
307,151	41,98
307,359	27,65
307,566	91,13
307,774	78,85
307,982	74,75
308,19	-1,02
308,398	9,22
308,605	-56,32
308,813	-56,32
309,021	25,6
309,229	50,18
309,436	-5,12
309,644	103,42
309,852	-11,26
310,06	58,37
310,267	50,18
310,475	27,65
310,683	23,55
310,89	58,37
311,098	-11,26
311,306	-23,55
311,513	64,51
311,721	9,22
311,929	9,22
312,136	80,89
312,344	39,94
312,552	-23,55
312,759	-5,12
312,967	1,02
313,174	15,36
313,382	25,6
313,589	140,29
313,797	82,94
314,005	74,75
314,212	7,17
314,42	-17,41
314,627	58,37
314,835	-33,79
315,042	48,13
315,25	-44,03
315,457	-29,7
315,665	-31,74
315,872	66,56
316,08	-1,02
316,287	-23,55
316,495	261,12
316,702	-23,55
316,909	9,22
317,117	91,13
317,324	74,75
317,532	97,28
317,739	41,98
317,946	-35,84
318,154	-1,02
318,361	7,17
318,569	-3,07
318,776	-115,71
318,983	-33,79
319,191	-13,31
319,398	-58,37
319,605	1,02
319,813	87,04
320,02	-31,74
320,227	39,94
320,434	56,32
320,642	95,23
320,849	-15,36
321,056	64,51
321,264	78,85
321,471	66,56
321,678	80,89
321,885	-17,41
322,092	3,07
322,3	46,08
322,507	-27,65
322,714	56,32
322,921	21,5
323,128	-7,17
323,336	-19,46
323,543	105,47
323,75	64,51
323,957	7,17
324,164	74,75
324,371	91,13
324,578	-7,17
324,786	113,66
324,993	58,37
325,2	68,61
325,407	-105,47
325,614	50,18
325,821	56,32
326,028	117,76
326,235	76,8
326,442	17,41
326,649	25,6
326,856	7,17
327,063	-11,26
327,27	44,03
327,477	1,02
327,684	5,12
327,891	-48,13
328,098	41,98
328,305	46,08
328,512	48,13
328,719	17,41
328,926	23,55
329,133	74,75
329,34	130,05
329,546	82,94
329,753	-9,22
329,96	3,07
330,167	60,42
330,374	58,37
330,581	76,8
330,788	-27,65
330,995	56,32
331,201	33,79
331,408	64,51
331,615	-9,22
331,822	-41,98
332,029	-25,6
332,235	15,36
332,442	13,31
332,649	-27,65
332,856	-25,6
333,062	58,37
333,269	56,32
333,476	46,08
333,683	15,36
333,889	-5,12
334,096	37,89
334,303	50,18
334,509	7,17
334,716	-13,31
334,923	70,65
335,129	-13,31
335,336	33,79
335,543	21,5
335,749	-7,17
335,956	140,29
336,163	-35,84
336,369	1,02
336,576	64,51
336,782	37,89
336,989	35,84
337,196	-15,36
337,402	-11,26
337,609	3,07
337,815	50,18
338,022	-66,56
338,228	37,89
338,435	121,85
338,641	41,98
338,848	35,84
339,054	125,95
339,261	1,02
339,467	-23,55
339,674	70,65
339,88	107,52
340,087	-13,31
340,293	9,22
340,5	-11,26
340,706	33,79
340,912	-9,22
341,119	21,5
341,325	-19,46
341,532	-35,84
341,738	-13,31
341,944	35,84
342,151	-1,02
342,357	-39,94
342,563	99,33
342,77	-23,55
342,976	62,46
343,182	54,27
343,389	-1,02
343,595	27,65
343,801	-1,02
344,007	29,7
344,214	-72,7
344,42	-17,41
344,626	105,47
344,832	-33,79
345,039	17,41
345,245	1,02
345,451	-29,7
345,657	54,27
345,864	72,7
346,07	25,6
346,276	31,74
346,482	93,18
346,688	138,24
346,894	37,89
347,1	-11,26
347,307	78,85
347,513	111,61
347,719	-19,46
347,925	74,75
348,131	-84,99
348,337	56,32
348,543	-44,03
348,749	-29,7
348,955	105,47
349,161	-39,94
349,367	19,46
349,573	74,75
349,779	62,46
349,985	11,26
350,191	-3,07
350,397	76,8
350,603	17,41
350,809	-21,5
351,015	66,56
351,221	-25,6
351,427	33,79
351,633	-9,22
351,839	41,98
352,045	64,51
352,251	144,38
352,457	105,47
352,663	29,7
352,869	7,17
353,075	80,89
353,28	-80,89
353,486	33,79
353,692	-64,51
353,898	7,17
354,104	-13,31
354,31	41,98
354,515	7,17
354,721	101,37
354,927	-21,5
355,133	97,28
355,339	41,98
355,544	103,42
355,75	82,94
355,956	119,81
356,162	3,07
356,367	64,51
356,573	46,08
356,779	-1,02
356,984	46,08
357,19	117,76
357,396	1,02
357,602	95,23
357,807	37,89
358,013	54,27
358,218	29,7
358,424	41,98
358,63	99,33
358,835	84,99
359,041	15,36
359,247	68,61
359,452	25,6
359,658	29,7
359,863	54,27
360,069	50,18
360,274	56,32
360,48	72,7
360,685	58,37
360,891	109,57
361,097	15,36
361,302	21,5
361,508	109,57
361,713	78,85
361,918	97,28
362,124	21,5
362,329	29,7
362,535	97,28
362,74	23,55
362,946	25,6
363,151	1,02
363,357	41,98
363,562	-11,26
363,767	41,98
363,973	103,42
364,178	87,04
364,383	52,22
364,589	29,7
364,794	-39,94
365	1,02
365,205	89,09
365,41	64,51
365,615	76,8
365,821	-35,84
366,026	87,04
366,231	5,12
366,437	78,85
366,642	-56,32
366,847	158,72
367,052	39,94
367,258	-56,32
367,463	25,6
367,668	25,6
367,873	107,52
368,078	125,95
368,284	-31,74
368,489	25,6
368,694	70,65
368,899	78,85
369,104	37,89
369,309	9,22
369,515	-15,36
369,72	95,23
369,925	-17,41
370,13	91,13
370,335	103,42
370,54	48,13
370,745	54,27
370,95	41,98
371,155	168,96
371,36	37,89
371,565	-15,36
371,77	31,74
371,975	-27,65
372,18	25,6
372,385	66,56
372,59	93,18
372,795	70,65
373	111,61
373,205	68,61
373,41	91,13
373,615	-52,22
373,82	23,55
374,025	41,98
374,23	-25,6
374,435	50,18
374,64	91,13
374,845	56,32
375,05	-23,55
375,254	-56,32
375,459	1,02
375,664	13,31
375,869	80,89
376,074	-31,74
376,279	56,32
376,483	25,6
376,688	74,75
376,893	87,04
377,098	19,46
377,303	138,24
377,507	107,52
377,712	87,04
377,917	46,08
378,122	103,42
378,326	31,74
378,531	64,51
378,736	-7,17
378,94	33,79
379,145	44,03
379,35	50,18
379,554	64,51
379,759	-7,17
379,964	123,9
380,168	29,7
380,373	66,56
380,578	41,98
380,782	37,89
380,987	107,52
381,191	27,65
381,396	41,98
381,601	72,7
381,805	58,37
382,01	105,47
382,214	50,18
382,419	35,84
382,623	121,85
382,828	46,08
383,032	46,08
383,237	-27,65
383,441	-9,22
383,646	95,23
383,85	-19,46
384,055	107,52
384,259	50,18
384,464	46,08
384,668	23,55
384,872	80,89
385,077	19,46
385,281	31,74
385,486	27,65
385,69	136,19
385,894	89,09
386,099	148,48
386,303	107,52
386,507	107,52
386,712	78,85
386,916	46,08
387,12	-9,22
387,325	56,32
387,529	74,75
387,733	158,72
387,937	23,55
388,142	46,08
388,346	58,37
388,55	87,04
388,754	93,18
388,959	48,13
389,163	91,13
389,367	105,47
389,571	70,65
389,775	113,66
389,98	132,09
390,184	70,65
390,388	70,65
390,592	105,47
390,796	136,19
391	105,47
391,204	82,94
391,409	103,42
391,613	80,89
391,817	64,51
392,021	134,14
392,225	89,09
392,429	58,37
392,633	72,7
392,837	9,22
393,041	82,94
393,245	105,47
393,449	50,18
393,653	31,74
393,857	130,05
394,061	97,28
394,265	64,51
394,469	113,66
394,673	168,96
394,877	87,04
395,081	125,95
395,285	119,81
395,489	48,13
395,693	58,37
395,896	46,08
396,1	181,25
396,304	152,57
396,508	146,43
396,712	148,48
396,916	113,66
397,12	84,99
397,323	195,58
397,527	146,43
397,731	189,44
397,935	173,05
398,139	218,11
398,342	254,97
398,546	173,05
398,75	160,77
398,954	193,53
399,157	240,64
399,361	230,4
399,565	125,95
399,769	214,01
399,972	185,34
400,176	197,63
400,38	209,92
400,583	89,09
400,787	216,06
400,991	230,4
401,194	222,2
401,398	254,97
401,601	322,56
401,805	375,8
402,009	281,6
402,212	226,3
402,416	361,47
402,619	205,82
402,823	234,49
403,026	187,39
403,23	244,73
403,433	377,85
403,637	271,36
403,841	275,45
404,044	216,06
404,247	283,64
404,451	238,59
404,654	224,25
404,858	304,12
405,061	267,26
405,265	214,01
405,468	271,36
405,672	234,49
405,875	310,27
406,078	259,07
406,282	277,5
406,485	318,46
406,689	390,14
406,892	410,62
407,095	283,64
407,299	361,47
407,502	367,61
407,705	357,37
407,909	328,7
408,112	345,08
408,315	412,67
408,518	406,52
408,722	392,19
408,925	422,91
409,128	433,15
409,331	349,18
409,535	424,95
409,738	406,52
409,941	437,24
410,144	345,08
410,347	474,1
410,551	408,57
410,754	435,19
410,957	455,67
411,16	359,42
411,363	560,12
411,566	449,53
411,769	371,71
411,973	494,58
412,176	568,31
412,379	549,88
412,582	582,65
412,785	574,46
412,988	478,2
413,191	549,88
413,394	517,11
413,597	414,71
413,8	523,26
414,003	615,41
414,206	476,15
414,409	572,41
414,612	517,11
414,815	605,17
415,018	621,56
415,221	588,79
415,424	582,65
415,627	621,56
415,83	689,14
416,033	685,05
416,235	621,56
416,438	717,81
416,641	709,62
416,844	672,76
417,047	664,57
417,25	730,1
417,453	721,91
417,655	766,96
417,858	762,87
418,061	695,29
418,264	756,72
418,467	797,68
418,669	777,2
418,872	816,12
419,075	865,27
419,278	945,14
419,48	863,22
419,683	824,31
419,886	889,84
420,089	1041,39
420,291	1047,54
420,494	1008,62
420,697	865,27
420,899	1080,3
421,102	912,37
421,305	1037,3
421,507	1063,92
421,71	1035,25
421,912	1102,83
422,115	1149,93
422,318	1133,55
422,52	1170,41
422,723	1215,47
422,925	1276,91
423,128	1168,37
423,33	1188,85
423,533	1131,5
423,735	1274,86
423,938	1278,96
424,14	1328,11
424,343	1457,13
424,545	1448,94
424,748	1342,44
424,95	1348,59
425,153	1479,66
425,355	1481,71
425,558	1614,82
425,76	1516,52
425,962	1602,54
426,165	1459,18
426,367	1659,88
426,57	1831,91
426,772	1688,55
426,974	1770,47
427,177	1623,02
427,379	1696,74
427,581	1735,65
427,784	1868,77
427,986	1760,23
428,188	1917,92
428,39	1862,63
428,593	1874,92
428,795	1991,65
428,997	2053,09
429,2	2016,23
429,402	2102,24
429,604	2048,99
429,806	2092
430,008	2106,34
430,211	2276,32
430,413	2245,6
430,615	2141,15
430,817	2278,37
431,019	2286,56
431,221	2483,16
431,423	2251,74
431,626	2581,46
431,828	2343,9
432,03	2614,23
432,232	2573,27
432,434	2653,14
432,636	2786,26
432,838	2556,89
433,04	2663,38
433,242	2747,35
433,444	2753,49
433,646	2751,45
433,848	2808,79
434,05	2843,6
434,252	2747,35
434,454	2694,1
434,656	3089,36
434,858	3021,78
435,06	3120,08
435,262	3097,55
435,464	3152,85
435,666	3455,95
435,868	3156,94
436,07	3519,43
436,271	3533,77
436,473	3292,11
436,675	3490,76
436,877	3447,76
437,079	3310,54
437,281	3408,84
437,482	3537,87
437,684	3670,98
437,886	3568,59
438,088	3605,45
438,29	3679,18
438,491	3638,22
438,693	3544,01
438,895	3869,64
439,097	4072,39
439,298	3836,87
439,5	3775,43
439,702	3920,84
439,903	3630,02
440,105	4056
440,307	4201,41
440,508	4160,45
440,71	4129,73
440,912	4162,5
441,113	3924,93
441,315	4285,37
441,517	4324,29
441,718	4488,12
441,92	4340,67
442,121	4406,2
442,323	4318,14
442,524	4567,99
442,726	4711,35
442,928	4645,82
443,129	4799,41
443,331	4418,49
443,532	4582,33
443,734	4737,98
443,935	5108,66
444,136	4654,01
444,338	4965,3
444,539	4936,63
444,741	5075,89
444,942	5024,69
445,144	5014,45
445,345	5217,2
445,546	5157,81
445,748	5133,23
445,949	5135,28
446,151	5252,02
446,352	5288,88
446,553	5409,71
446,755	5366,7
446,956	5706,66
447,157	5594,03
447,359	5673,9
447,56	5782,44
447,761	5628,84
447,962	5981,09
448,164	6138,79
448,365	5465
448,566	5948,33
448,767	5864,36
448,969	6341,54
449,17	6144,93
449,371	5770,15
449,572	6136,74
449,773	6243,23
449,974	6290,34
450,176	6380,45
450,377	6620,06
450,578	6734,75
450,779	6456,22
450,98	6366,11
451,181	6587,29
451,382	6742,94
451,583	6779,8
451,784	6747,03
451,986	7295,89
452,187	6744,99
452,388	6888,34
452,589	6505,37
452,79	7267,22
452,991	6732,7
453,192	7013,27
453,393	6929,3
453,594	7375,76
453,795	6896,53
453,995	6867,86
454,196	6867,86
454,397	7152,53
454,598	6828,95
454,799	7070,61
455	7160,72
455,201	7140,24
455,402	7142,29
455,603	6978,45
455,804	7349,14
456,004	7521,17
456,205	7021,46
456,406	6882,2
456,607	7035,8
456,808	7144,34
457,008	6896,53
457,209	6689,69
457,41	7488,4
457,611	6943,64
457,811	7064,47
458,012	7011,22
458,213	7095,19
458,414	6661,02
458,614	6677,4
458,815	6677,4
459,016	6800,28
459,216	6755,22
459,417	6861,72
459,618	6548,38
459,818	6501,28
460,019	6259,62
460,22	6355,87
460,42	6323,1
460,621	6259,62
460,821	6204,32
461,022	6118,31
461,223	5807,02
461,423	5985,19
461,624	6005,67
461,824	5940,13
462,025	5559,21
462,225	5684,14
462,426	5735,34
462,626	5735,34
462,827	5544,88
463,027	5591,98
463,228	5467,05
463,428	5315,5
463,628	5362,61
463,829	5575,59
464,029	4912,05
464,23	5176,24
464,43	5151,67
464,63	4883,38
464,831	5008,31
465,031	4985,78
465,231	4983,73
465,432	4907,96
465,632	4756,41
465,832	4512,7
466,033	4807,61
466,233	4740,02
466,433	4582,33
466,634	4643,77
466,834	4619,19
467,034	4563,9
467,234	4582,33
467,435	4408,25
467,635	4469,69
467,835	4168,64
468,035	4447,16
468,235	4420,54
468,436	4355,01
468,636	4094,91
468,836	3892,16
469,036	4338,62
469,236	4076,48
469,436	4078,53
469,636	4264,89
469,836	3990,47
470,037	3994,56
470,237	3904,45
470,437	4031,43
470,637	3847,11
470,837	3851,21
471,037	3879,88
471,237	4133,82
471,437	3965,89
471,637	4086,72
471,837	4103,11
472,037	3965,89
472,237	3920,84
472,437	3904,45
472,637	4254,66
472,837	3877,83
473,036	3834,82
473,236	4086,72
473,436	3974,08
473,636	3980,23
473,836	3869,64
474,036	3978,18
474,236	3871,68
474,436	4004,8
474,635	3904,45
474,835	3980,23
475,035	4119,49
475,235	4137,92
475,435	4133,82
475,634	3908,55
475,834	4189,12
476,034	4045,76
476,234	4051,91
476,433	4111,3
476,633	4096,96
476,833	3980,23
477,033	3873,73
477,232	4017,09
477,432	3910,6
477,632	4090,82
477,831	4084,67
478,031	3920,84
478,231	4023,23
478,43	3963,84
478,63	4023,23
478,829	3984,32
479,029	3967,94
479,229	4041,67
479,428	4002,75
479,628	4029,38
479,827	4039,62
480,027	3943,36
480,226	4088,77
480,426	4099,01
480,625	4043,71
480,825	4254,66
481,024	4049,86
481,224	4060,1
481,423	3947,46
481,623	4099,01
481,822	3939,27
482,021	4002,75
482,221	4131,78
482,42	4111,3
482,62	4158,4
482,819	3965,89
483,018	4285,37
483,218	3933,12
483,417	4154,3
483,616	4072,39
483,816	4082,63
484,015	4049,86
484,214	4064,19
484,414	4090,82
484,613	4025,28
484,812	3892,16
485,011	3998,66
485,211	3922,88
485,41	3849,16
485,609	3922,88
485,808	3924,93
486,008	4021,19
486,207	3969,99
486,406	3994,56
486,605	3998,66
486,804	4068,29
487,003	4195,26
487,203	4080,58
487,402	4103,11
487,601	3943,36
487,8	4133,82
487,999	4217,79
488,198	4105,15
488,397	4219,84
488,596	4207,55
488,795	4043,71
488,994	4305,85
489,193	4135,87
489,392	4352,96
489,591	4375,49
489,79	4232,13
489,989	4357,05
490,188	4197,31
490,387	4293,57
490,586	4207,55
490,785	4359,1
490,984	4375,49
491,183	4359,1
491,382	4250,56
491,581	4410,3
491,779	4488,12
491,978	4373,44
492,177	4453,31
492,376	4443,07
492,575	4441,02
492,774	4498,36
492,972	4434,88
493,171	4447,16
493,37	4438,97
493,569	4504,51
493,768	4441,02
493,966	4563,9
494,165	4635,58
494,364	4793,27
494,563	4690,87
494,761	4563,9
494,96	4625,34
495,159	4561,85
495,357	4443,07
495,556	4735,93
495,755	4697,02
495,953	4756,41
496,152	4559,8
496,35	4686,78
496,549	4811,7
496,748	4774,84
496,946	4830,13
497,145	4914,1
497,343	4705,21
497,542	4748,22
497,74	4879,29
497,939	4826,04
498,137	4950,96
498,336	5022,64
498,534	4993,97
498,733	4850,61
498,931	4717,5
499,13	4852,66
499,328	4910,01
499,527	5079,99
499,725	5036,98
499,924	5018,55
500,122	5022,64
500,32	5213,1
500,519	5125,04
500,717	5178,29
500,915	5145,52
501,114	5288,88
501,312	5305,26
501,51	5215,15
501,709	5401,52
501,907	5483,44
502,105	5272,5
502,304	5520,3
502,502	5338,03
502,7	5573,55
502,898	5596,07
503,097	5487,53
503,295	5673,9
503,493	5749,67
503,691	5800,87
503,889	5716,9
504,088	5727,14
504,286	5966,76
504,484	5989,28
504,682	6124,45
504,88	6171,55
505,078	6310,82
505,276	6441,89
505,474	6720,41
505,672	6378,4
505,871	6353,82
506,069	6646,68
506,267	6775,7
506,465	6693,79
506,663	6824,86
506,861	6732,7
507,059	6859,67
507,257	7140,24
507,455	7082,9
507,653	7216,02
507,851	7396,24
508,049	7414,67
508,246	7551,88
508,444	7713,67
508,642	7750,54
508,84	7869,32
509,038	7891,85
509,236	8151,94
509,434	8143,75
509,632	8473,47
509,829	8446,85
510,027	8362,88
510,225	8532,86
510,423	8776,57
510,621	8694,65
510,818	8977,27
511,016	9077,62
511,214	9153,4
511,412	9263,99
511,609	9476,98
511,807	9763,69
512,005	9495,41
512,203	9835,37
512,4	10115,94
512,598	10316,64
512,796	10212,2
512,993	10187,62
513,191	10543,97
513,389	10517,34
513,586	10922,84
513,784	11101,01
513,981	11291,48
514,179	11238,23
514,377	11486,03
514,574	11672,4
514,772	11438,93
514,969	12092,23
515,167	11901,77
515,364	12299,08
515,562	12198,73
515,759	12497,73
515,957	12804,92
516,154	12864,32
516,352	13073,21
516,549	13263,67
516,746	13525,81
516,944	13912,88
517,141	14095,14
517,339	13876,01
517,536	14287,65
517,733	14437,16
517,931	14848,8
518,128	15047,45
518,325	15170,33
518,523	15522,58
518,72	15557,39
518,917	16073,48
519,115	16122,63
519,312	16309
519,509	16468,74
519,707	16827,14
519,904	16868,09
520,101	17072,89
520,298	17298,17
520,495	17435,38
520,693	17828,59
520,89	18174,7
521,087	18068,2
521,284	18381,54
521,481	18490,09
521,678	18729,7
521,876	19122,91
522,073	19182,3
522,27	19309,27
522,467	19651,28
522,664	19765,97
522,861	20449,99
523,058	20570,82
523,255	20675,27
523,452	21168,83
523,649	20980,42
523,846	21426,87
524,043	21742,26
524,24	21918,39
524,437	21895,86
524,634	22436,52
524,831	22751,91
525,028	22739,62
525,225	23077,54
525,422	23321,24
525,619	23354,01
525,816	23370,4
526,013	24486,54
526,209	24158,86
526,406	24038,03
526,603	24150,67
526,8	24638,09
526,997	24668,81
527,194	25119,36
527,39	25350,78
527,587	24976
527,784	25713,27
527,981	25782,9
528,177	25920,12
528,374	26860,13
528,571	26382,96
528,768	26823,27
528,964	27224,67
529,161	27572,83
529,358	27771,48
529,554	27370,08
529,751	27374,17
529,948	27841,11
530,144	27939,41
530,341	28531,28
530,537	28602,96
530,734	29141,57
530,931	28936,77
531,127	29342,27
531,324	29731,39
531,52	29643,32
531,717	29661,76
531,913	29682,24
532,11	29925,94
532,306	30214,71
532,503	30429,74
532,699	30652,97
532,896	31007,27
533,092	30841,39
533,289	31017,51
533,485	31789,59
533,682	31611,42
533,878	31398,43
534,074	31345,19
534,271	32195,09
534,467	31877,66
534,664	32659,98
534,86	32655,89
535,056	32715,28
535,253	33004,04
535,449	32889,35
535,645	32791,05
535,841	33348,1
536,038	33214,98
536,234	33204,74
536,43	33868,28
536,626	34206,2
536,823	33700,35
537,019	33991,16
537,215	34435,57
537,411	34746,86
537,607	34578,93
537,804	34734,57
538	35158,5
538,196	35471,84
538,392	35582,43
538,588	35148,26
538,784	35709,41
538,98	35631,58
539,176	35844,57
539,373	36612,56
539,569	36184,54
539,765	36407,76
539,961	36940,24
540,157	36760,02
540,353	36313,56
540,549	36985,29
540,745	36542,93
540,941	37233,1
541,137	36956,62
541,333	37206,47
541,528	37339,59
541,724	36882,89
541,92	37239,24
542,116	37038,54
542,312	37554,63
542,508	37702,08
542,704	37814,72
542,9	37732,8
543,096	38013,37
543,291	38164,92
543,487	37964,22
543,683	37958,08
543,879	38504,88
544,075	38070,72
544,27	38295,99
544,466	38554,04
544,662	38691,25
544,858	39115,18
545,053	39094,7
545,249	39145,9
545,445	39317,93
545,64	39690,66
545,836	39182,76
546,032	39584,16
546,227	39758,24
546,423	39543,2
546,619	40114,59
546,814	40499,61
547,01	40257,95
547,205	40356,25
547,401	39487,91
547,597	40319,38
547,792	39664,03
547,988	39901,6
548,183	40053,15
548,379	40499,61
548,574	40176,03
548,77	40831,38
548,965	40264,09
549,161	40534,42
549,356	40466,84
549,552	41421,19
549,747	40946,06
549,942	40747,41
550,138	41331,08
550,333	40624,53
550,529	41105,8
550,724	41044,37
550,919	40884,62
551,115	41429,38
551,31	41105,8
551,505	41341,32
551,701	41114
551,896	41023,89
552,091	41501,06
552,287	41351,56
552,482	41380,23
552,677	41544,07
552,872	41400,71
553,067	41802,11
553,263	41939,33
553,458	41830,79
553,653	41316,75
553,848	41822,59
554,043	41652,61
554,239	42617,21
554,434	41650,56
554,629	42365,31
554,824	41847,17
555,019	41957,76
555,214	42316,15
555,409	41914,75
555,604	42088,83
555,799	41441,67
555,994	41578,89
556,189	41460,1
556,384	42060,16
556,579	42158,46
556,774	41804,16
556,969	41642,37
557,164	41814,4
557,359	41488,77
557,554	41548,17
557,749	42264,96
557,944	41920,9
558,139	42021,25
558,334	42412,41
558,529	42527,1
558,724	42264,96
558,918	42682,74
559,113	42535,29
559,308	42924,4
559,503	42916,21
559,698	42293,63
559,893	42025,34
560,087	42068,35
560,282	41931,14
560,477	41591,17
560,672	42084,73
560,866	42176,89
561,061	42391,93
561,256	42748,28
561,45	42436,98
561,645	42787,19
561,84	42912,11
562,034	42707,32
562,229	42185,08
562,424	42127,74
562,618	42246,52
562,813	42377,59
563,008	41871,75
563,202	41795,97
563,397	41615,75
563,591	41347,47
563,786	41582,98
563,98	42011,01
564,175	41640,32
564,369	41509,25
564,564	41525,64
564,758	42293,63
564,953	41625,99
565,147	42162,56
565,342	41169,29
565,536	41722,24
565,731	41718,15
565,925	42039,68
566,119	41791,87
566,314	41578,89
566,508	41496,97
566,703	42137,98
566,897	41724,29
567,091	41767,3
567,286	41601,41
567,48	42039,68
567,674	41953,66
567,868	41986,43
568,063	41556,36
568,257	41773,44
568,451	42015,1
568,646	41634,18
568,84	41073,04
569,034	41077,13
569,228	41466,25
569,422	41658,76
569,616	41159,05
569,811	41253,26
570,005	41042,32
570,199	41288,07
570,393	41572,74
570,587	41634,18
570,781	41558,41
570,975	41744,77
571,169	41566,6
571,364	42047,87
571,558	41478,54
571,752	41908,61
571,946	40974,73
572,14	42047,87
572,334	41650,56
572,528	42379,64
572,722	41781,63
572,916	41716,1
573,109	41300,36
573,303	41568,65
573,497	41281,93
573,691	42123,65
573,885	41179,53
574,079	42105,21
574,273	41560,45
574,467	41281,93
574,661	40868,24
574,854	40728,98
575,048	41212,3
575,242	41439,62
575,436	40917,39
575,63	41116,04
575,823	41034,13
576,017	40987,02
576,211	40698,26
576,405	41599,37
576,598	41200,01
576,792	40989,07
576,986	41265,55
577,18	41001,36
577,373	41509,25
577,567	40880,53
577,761	40743,31
577,954	40610,2
578,148	40429,98
578,341	40173,98
578,535	40724,88
578,729	40710,55
578,922	40219,03
579,116	41126,28
579,309	40180,12
579,503	40894,86
579,696	40905,1
579,89	41114
580,083	40784,27
580,277	40925,58
580,47	40735,12
580,664	40847,76
580,857	40303
581,051	40634,77
581,244	40044,96
581,437	41144,72
581,631	40540,57
581,824	40526,23
582,018	40077,72
582,211	40380,82
582,404	40032,67
582,598	40022,43
582,791	39645,6
582,984	39590,31
583,178	40233,37
583,371	40100,25
583,564	39670,18
583,757	39881,12
583,951	39858,59
584,144	39827,87
584,337	39565,73
584,53	40393,11
584,723	39815,58
584,917	40057,24
585,11	39379,37
585,303	39784,86
585,496	38859,18
585,689	39827,87
585,882	39221,67
586,075	39420,33
586,268	39424,42
586,462	39741,86
586,655	39266,73
586,848	39743,91
587,041	39596,45
587,234	40163,74
587,427	39584,16
587,62	39987,61
587,813	39774,63
588,006	39565,73
588,199	39422,37
588,392	39356,84
588,585	38898,09
588,777	38599,09
588,97	38562,23
589,163	39068,08
589,356	38721,97
589,549	38275,51
589,742	38273,46
589,935	38388,15
590,128	38357,43
590,32	38451,64
590,513	38465,97
590,706	38719,92
590,899	38939,05
591,092	38971,82
591,284	39076,27
591,477	38707,63
591,67	38148,54
591,863	38136,25
592,055	38234,55
592,248	38259,13
592,441	37886,4
592,633	37835,2
592,826	37661,12
593,019	37654,98
593,211	37441,99
593,404	37700,03
593,596	37603,78
593,789	37577,15
593,982	37083,59
594,174	37577,15
594,367	37745,09
594,559	38040
594,752	37319,11
594,944	37024,2
595,137	37306,82
595,329	37065,16
595,522	37550,53
595,714	37595,59
595,907	37302,73
596,099	37333,45
596,292	36940,24
596,484	36788,69
596,676	36921,8
596,869	36794,83
597,061	37091,79
597,253	36960,72
597,446	36329,94
597,638	36604,37
597,83	36360,66
598,023	36651,47
598,215	36155,86
598,407	36360,66
598,6	36016,6
598,792	36590,03
598,984	36200,92
599,176	35594,72
599,369	35844,57
599,561	35690,98
599,753	35291,62
599,945	35594,72
600,137	35580,39
600,329	35353,06
600,522	34892,27
600,714	35082,73
600,906	34892,27
601,098	35373,54
601,29	34978,28
601,482	34988,52
601,674	35557,86
601,866	35604,96
602,058	34793,97
602,25	34783,73
602,442	35066,34
602,634	35174,89
602,826	34568,69
603,018	34638,32
603,21	34451,95
603,402	34306,55
603,594	33890,81
603,786	34073,08
603,978	33354,24
604,17	33765,88
604,362	33853,95
604,554	33853,95
604,745	33636,86
604,937	34195,96
605,129	33757,69
605,321	33565,18
605,513	34384,37
605,704	33774,08
605,896	33384,96
606,088	33257,99
606,28	33155,59
606,471	33354,24
606,663	32758,28
606,855	32782,86
607,047	32825,87
607,238	33063,43
607,43	32272,92
607,622	32940,55
607,813	32541,2
608,005	32979,46
608,197	32829,96
608,388	32514,58
608,58	32137,75
608,771	32225,81
608,963	31576,61
609,154	31795,74
609,346	31293,99
609,537	31832,6
609,729	31515,17
609,921	31582,75
610,112	30802,47
610,303	30775,85
610,495	30751,27
610,686	30865,96
610,878	31042,09
611,069	30753,32
611,261	30845,48
611,452	30796,33
611,643	30708,27
611,835	30513,71
612,026	30292,53
612,217	30284,34
612,409	30456,37
612,6	30130,74
612,791	29913,66
612,983	29610,56
613,174	29786,68
613,365	29266,5
613,557	29131,33
613,748	29108,8
613,939	29010,5
614,13	29147,72
614,321	29401,66
614,513	29309,5
614,704	29002,31
614,895	29010,5
615,086	28670,54
615,277	28832,33
615,468	28742,22
615,659	28928,58
615,851	28357,2
616,042	28654,15
616,233	28289,62
616,424	28592,72
616,615	28160,59
616,806	28731,98
616,997	28293,71
617,188	27787,86
617,379	28287,57
617,57	27996,76
617,761	28564,04
617,952	28179,03
618,143	28287,57
618,334	28621,39
618,524	28572,24
618,715	28543,56
618,906	28500,56
619,097	27988,56
619,288	27953,75
619,479	27607,64
619,67	27583,07
619,86	27427,42
620,051	27492,96
620,242	27519,58
620,433	27664,99
620,624	27564,64
620,814	27816,54
621,005	27492,96
621,196	27679,32
621,386	28283,47
621,577	27916,89
621,768	27609,69
621,958	28045,91
622,149	27908,69
622,34	28213,84
622,53	27986,52
622,721	27642,46
622,912	28119,63
623,102	27947,61
623,293	27896,41
623,483	28097,11
623,674	27497,05
623,864	27794,01
624,055	27382,37
624,245	27333,21
624,436	27292,26
624,626	27802,2
624,817	27976,28
625,007	27976,28
625,198	27834,97
625,388	27783,77
625,579	28035,67
625,769	28166,74
625,959	27918,93
626,15	27820,63
626,34	27435,61
626,531	27667,03
626,721	27925,08
626,911	27654,75
627,101	27540,06
627,292	27286,11
627,482	27544,16
627,672	27654,75
627,863	27243,1
628,053	27769,43
628,243	27380,32
628,433	27417,18
628,623	27355,74
628,814	27189,86
629,004	27087,46
629,194	26927,72
629,384	26741,35
629,574	26874,47
629,764	26649,19
629,955	26434,16
630,145	26315,37
630,335	26483,31
630,525	26202,74
630,715	26569,32
630,905	26366,57
631,095	26518,12
631,285	26288,75
631,475	25946,74
631,665	26634,86
631,855	25975,41
632,045	26059,38
632,235	26036,85
632,425	25832,05
632,615	25588,35
632,805	25903,73
632,994	25170,56
633,184	25490,04
633,374	25442,94
633,564	25473,66
633,754	25086,59
633,944	24986,24
634,133	24480,39
634,323	25141,89
634,513	24656,52
634,703	25014,91
634,893	24656,52
635,082	24564,36
635,272	24570,51
635,462	24896,13
635,651	24871,56
635,841	24613,51
636,031	24453,77
636,221	24181,39
636,41	24566,41
636,6	24232,59
636,789	23859,86
636,979	23655,06
637,169	23575,19
637,358	23239,33
637,548	23184,03
637,737	22821,54
637,927	22854,31
638,116	23472,79
638,306	23177,89
638,495	22917,79
638,685	22690,47
638,874	22772,39
639,064	22592,17
639,253	22422,19
639,443	22213,29
639,632	22575,78
639,822	22145,71
640,011	22379,18
640,2	22278,83
640,39	22702,76
640,579	22260,4
640,768	22436,52
640,958	22551,21
641,147	22465,19
641,336	22020,78
641,526	22010,54
641,715	21725,88
641,904	21496,5
642,093	21197,5
642,283	21523,13
642,472	20984,51
642,661	21131,97
642,85	21201,6
643,039	21559,99
643,228	21619,38
643,418	21435,06
643,607	21338,81
643,796	20968,13
643,985	20718,28
644,174	21023,42
644,363	20800,19
644,552	20900,55
644,741	20230,86
644,93	20368,07
645,119	20073,17
645,308	20490,95
645,497	20183,76
645,686	19770,07
645,875	20103,89
646,064	19776,21
646,253	19591,89
646,442	19921,62
646,631	19718,87
646,82	19858,13
647,009	19819,22
647,198	19339,99
647,387	19436,25
647,575	19372,76
647,764	19993,29
647,953	18875,1
648,142	19364,57
648,331	19528,41
648,519	18856,67
648,708	18924,26
648,897	18655,97
649,086	19020,51
649,274	18563,81
649,463	18393,83
649,652	18535,14
649,84	18514,66
650,029	18655,97
650,218	18676,45
650,406	18600,68
650,595	18557,67
650,784	18506,47
650,972	18152,17
651,161	18023,15
651,349	17875,7
651,538	18117,36
651,726	17775,34
651,915	17894,13
652,104	17419
652,292	17650,42
652,481	17361,66
652,669	17631,99
652,857	17236,73
653,046	17064,7
653,234	17056,51
653,423	16810,75
653,611	16728,83
653,8	16630,53
653,988	16960,25
654,176	16575,24
654,365	16837,38
654,553	16788,22
654,741	16927,49
654,93	16567,04
655,118	16399,11
655,306	16638,72
655,494	16812,8
655,683	16569,09
655,871	16462,6
656,059	16743,17
656,247	16167,69
656,436	16335,62
656,624	16100,11
656,812	15946,51
657	15700,75
657,188	15823,63
657,376	15966,99
657,564	15887,12
657,753	15827,73
657,941	15575,83
658,129	15866,64
658,317	15536,91
658,505	15360,79
658,693	15242,01
658,881	15137,56
659,069	15098,65
659,257	15018,78
659,445	15233,82
659,633	15213,34
659,821	15149,85
660,009	14914,33
660,197	14877,47
660,384	14766,88
660,572	14963,48
660,76	14981,92
660,948	14795,55
661,136	14701,34
661,324	14859,04
661,512	15072,03
661,699	14529,31
661,887	14592,8
662,075	14621,47
662,263	14484,26
662,451	14306,09
662,638	14136,1
662,826	13953,84
663,014	14193,45
663,201	13902,64
663,389	13957,93
663,577	13933,36
663,764	13833
663,952	13790
664,14	13597,49
664,327	13787,95
664,515	13648,69
664,702	13521,71
664,89	13540,15
665,078	13515,57
665,265	13611,82
665,453	13456,18
665,64	13372,21
665,828	13146,94
666,015	13050,68
666,203	13007,67
666,39	13194,04
666,578	12899,13
666,765	13171,51
666,952	12608,32
667,14	12895,04
667,327	12548,93
667,515	12516,16
667,702	12491,59
667,889	12321,6
668,077	12395,33
668,264	12286,79
668,451	12407,62
668,638	12434,24
668,826	12067,66
669,013	12337,99
669,2	12026,7
669,388	12305,22
669,575	12108,62
669,762	12041,03
669,949	11903,82
670,136	12647,23
670,323	12022,6
670,511	11778,89
670,698	11885,39
670,885	11680,59
671,072	11510,61
671,259	11688,78
671,446	11613,01
671,633	11567,95
671,82	11436,88
672,007	11473,74
672,194	11330,39
672,381	11135,83
672,568	11432,79
672,755	11379,54
672,942	11160,41
673,129	11045,72
673,316	11260,76
673,503	11043,67
673,69	10740,57
673,877	10900,31
674,064	10738,52
674,251	10662,75
674,437	10603,36
674,624	10576,73
674,811	10306,4
674,998	10437,47
675,185	10326,88
675,372	10179,43
675,558	10371,94
675,745	10271,59
675,932	10179,43
676,119	10244,96
676,305	10064,74
676,492	10156,9
676,679	9960,3
676,865	10060,65
677,052	9888,62
677,239	9988,97
677,425	9673,58
677,612	9747,31
677,798	9606
677,985	9726,83
678,172	9687,92
678,358	9579,37
678,545	9696,11
678,731	9591,66
678,918	9458,54
679,104	9337,71
679,291	9571,18
679,477	9216,88
679,664	9055,09
679,85	9337,71
680,036	9227,12
680,223	9012,09
680,409	9153,4
680,596	9075,57
680,782	9167,73
680,968	9116,53
681,155	9108,34
681,341	9120,63
681,527	9182,07
681,714	9151,35
681,9	8932,22
682,086	8721,27
682,272	8713,08
682,459	8827,77
682,645	8760,19
682,831	8541,05
683,017	8545,15
683,204	8496
683,39	8455,04
683,576	8381,31
683,762	8276,87
683,948	8326,02
684,134	8250,24
684,32	8321,92
684,506	8127,36
684,693	8438,66
684,879	7902,09
685,065	7967,62
685,251	7963,53
685,437	8010,63
685,623	7914,38
685,809	7928,71
685,995	7871,37
686,181	7881,61
686,366	7531,41
686,552	7789,45
686,738	7562,12
686,924	7570,32
687,11	7525,26
687,296	7381,9
687,482	7213,97
687,668	7148,43
687,853	7183,25
688,039	7181,2
688,225	7144,34
688,411	7177,11
688,597	7105,43
688,782	7123,86
688,968	6980,5
689,154	7082,9
689,34	7170,96
689,525	7148,43
689,711	6962,07
689,897	7201,68
690,082	7048,08
690,268	6734,75
690,454	6747,03
690,639	6783,9
690,825	6884,25
691,01	6831
691,196	6693,79
691,381	6638,49
691,567	6505,37
691,753	6560,67
691,938	6499,23
692,124	6429,6
692,309	6308,77
692,494	6509,47
692,68	6345,63
692,865	6306,72
693,051	6142,88
693,236	6087,59
693,422	6124,45
693,607	6032,29
693,792	6144,93
693,978	6011,81
694,163	5968,8
694,348	5794,73
694,534	6026,15
694,719	6009,76
694,904	5815,21
695,089	5825,45
695,275	5929,89
695,46	5708,71
695,645	5776,3
695,83	5694,38
696,016	5735,34
696,201	5716,9
696,386	5596,07
696,571	5512,11
696,756	5626,79
696,941	5774,25
697,126	5489,58
697,311	5694,38
697,497	5370,8
697,682	5563,31
697,867	5493,68
698,052	5399,47
698,237	5411,76
698,422	5217,2
698,607	5139,38
698,792	5260,21
698,977	5063,6
699,162	5243,82
699,347	5153,71
699,531	5082,03
699,716	5166
699,901	5063,6
700,086	4993,97
700,271	5057,46
700,456	4930,48
700,641	4867
700,825	4748,22
701,01	4885,43
701,195	4772,79
701,38	4697,02
701,565	4881,33
701,749	4717,5
701,934	4670,39
702,119	4678,58
702,303	4701,11
702,488	4639,67
702,673	4656,06
702,857	4531,13
703,042	4553,66
703,227	4633,53
703,411	4500,41
703,596	4578,23
703,78	4305,85
703,965	4350,91
704,15	4279,23
704,334	4301,76
704,519	4250,56
704,703	4176,83
704,888	4334,53
705,072	4242,37
705,257	4371,39
705,441	4271,04
705,625	4498,36
705,81	4080,58
705,994	4189,12
706,179	4195,26
706,363	4264,89
706,547	4168,64
706,732	4105,15
706,916	4099,01
707,1	4119,49
707,285	4127,68
707,469	4082,63
707,653	4056
707,837	4062,15
708,022	3828,68
708,206	3931,08
708,39	3785,67
708,574	3992,52
708,759	3933,12
708,943	3908,55
709,127	3840,97
709,311	3826,63
709,495	3914,69
709,679	3718,09
709,863	3662,79
710,047	3662,79
710,231	3877,83
710,415	3623,88
710,6	3546,06
710,784	3564,49
710,968	3433,42
711,152	3564,49
711,336	3529,67
711,519	3505,1
711,703	3423,18
711,887	3474,38
712,071	3361,74
712,255	3374,03
712,439	3451,85
712,623	3322,83
712,807	3449,8
712,991	3343,31
713,174	3326,93
713,358	3288,01
713,542	3240,91
713,726	3187,66
713,91	3347,4
714,093	3181,52
714,277	3130,32
714,461	3113,94
714,645	3183,57
714,828	2986,96
715,012	3077,07
715,196	3048,4
715,379	2909,14
715,563	3060,69
715,747	3007,44
715,93	2882,52
716,114	3040,21
716,297	2806,74
716,481	2784,21
716,664	2769,88
716,848	3015,63
717,031	2745,3
717,215	2778,07
717,398	2716,63
717,582	2636,76
717,765	2866,13
717,949	2630,62
718,132	2685,91
718,316	2597,85
718,499	2524,12
718,682	2761,69
718,866	2550,75
719,049	2560,98
719,233	2587,61
719,416	2606,04
719,599	2651,1
719,782	2610,14
719,966	2575,32
720,149	2667,48
720,332	2489,31
720,515	2593,75
720,699	2556,89
720,882	2483,16
721,065	2388,96
721,248	2548,7
721,431	2448,35
721,615	2409,44
721,798	2386,91
721,981	2358,24
722,164	2462,68
722,347	2434,01
722,53	2479,07
722,713	2384,86
722,896	2370,52
723,079	2354,14
723,262	2401,24
723,445	2415,58
723,628	2421,72
723,811	2212,83
723,994	2253,79
724,177	2251,74
724,36	2218,97
724,543	2261,98
724,726	2188,25
724,909	2157,54
725,091	2180,06
725,274	2055,14
725,457	2106,34
725,64	2198,49
725,823	2040,8
726,006	2069,47
726,188	2124,77
726,371	2094,05
726,554	2020,32
726,737	2012,13
726,919	2112,48
727,102	2122,72
727,285	2073,57
727,467	1909,73
727,65	2010,08
727,833	2036,7
728,015	1940,45
728,198	1971,17
728,38	1901,54
728,563	1917,92
728,746	1864,68
728,928	1956,83
729,111	1928,16
729,293	1952,74
729,476	1911,78
729,658	1944,55
729,841	1960,93
730,023	2024,42
730,205	1827,81
730,388	1831,91
730,57	1899,49
730,753	1729,51
730,935	1803,24
731,117	1995,75
731,3	1876,96
731,482	1786,85
731,664	1928,16
731,847	1866,72
732,029	1817,57
732,211	1795,04
732,394	1688,55
732,576	1774,56
732,758	1725,41
732,94	1678,31
733,122	1704,93
733,305	1754,09
733,487	1704,93
733,669	1768,42
733,851	1571,82
734,033	1684,45
734,215	1688,55
734,397	1709,03
734,58	1663,97
734,762	1623,02
734,944	1637,35
735,126	1627,11
735,308	1663,97
735,49	1614,82
735,672	1496,04
735,854	1602,54
736,036	1653,73
736,218	1590,25
736,399	1506,28
736,581	1686,5
736,763	1588,2
736,945	1582,06
737,127	1541,1
737,309	1573,86
737,491	1522,66
737,672	1491,95
737,854	1426,41
738,036	1532,9
738,218	1473,51
738,4	1414,12
738,581	1493,99
738,763	1377,26
738,945	1313,77
739,127	1442,79
739,308	1348,59
739,49	1446,89
739,672	1522,66
739,853	1426,41
740,035	1369,07
740,216	1444,84
740,398	1428,46
740,58	1426,41
740,761	1407,98
740,943	1414,12
741,124	1340,4
741,306	1336,3
741,487	1326,06
741,669	1328,11
741,85	1391,59
742,032	1301,48
742,213	1336,3
742,394	1244,14
742,576	1344,49
742,757	1319,92
742,939	1276,91
743,12	1221,61
743,301	1117,17
743,483	1309,68
743,664	1186,8
743,845	1276,91
744,027	1229,81
744,208	1147,89
744,389	1211,37
744,57	1143,79
744,752	1209,33
744,933	1238
745,114	1176,56
745,295	1209,33
745,476	1254,38
745,657	1160,17
745,839	1172,46
746,02	1197,04
746,201	1168,37
746,382	1201,13
746,563	1184,75
746,744	1180,65
746,925	1143,79
747,106	1192,94
747,287	1170,41
747,468	1098,74
747,649	1162,22
747,83	1088,5
748,011	1111,02
748,192	1135,6
748,373	1053,68
748,554	1049,58
748,735	1088,5
748,915	1072,11
749,096	1070,06
749,277	1119,21
749,458	1096,69
749,639	1111,02
749,82	1160,17
750	973,81
750,181	1115,12
750,362	1053,68
750,543	1033,2
750,723	1025,01
750,904	1045,49
751,085	1025,01
751,265	1037,3
751,446	1033,2
751,627	1037,3
751,807	1117,17
751,988	1000,43
752,169	1057,78
752,349	1039,34
752,53	1094,64
752,71	928,75
752,891	1088,5
753,071	1088,5
753,252	1123,31
753,432	1061,87
753,613	1010,67
753,793	1000,43
753,974	1102,83
754,154	1049,58
754,334	1055,73
754,515	1016,82
754,695	1027,06
754,876	1111,02
755,056	1119,21
755,236	945,14
755,417	1025,01
755,597	1106,93
755,777	1065,97
755,957	881,65
756,138	1002,48
756,318	1033,2
756,498	971,76
756,678	1065,97
756,859	1045,49
757,039	955,38
757,219	984,05
757,399	957,43
757,579	955,38
757,759	830,45
757,939	904,18
758,119	922,61
758,3	965,62
758,48	904,18
758,66	852,98
758,84	740,34
759,02	818,16
759,2	680,95
759,38	793,59
759,56	775,16
759,74	730,1
759,919	758,77
760,099	795,64
760,279	809,97
760,459	748,53
760,639	789,49
760,819	728,05
760,999	736,24
761,178	719,86
761,358	818,16
761,538	777,2
761,718	758,77
761,898	650,23
762,077	662,52
762,257	707,57
762,437	738,29
762,616	732,15
762,796	631,8
762,976	740,34
763,155	756,72
763,335	715,77
763,515	639,99
763,694	742,39
763,874	719,86
764,053	795,64
764,233	746,48
764,413	685,05
764,592	699,38
764,772	707,57
764,951	674,81
765,131	637,94
765,31	615,41
765,489	599,03
765,669	791,54
765,848	726
766,028	695,29
766,207	705,53
766,386	662,52
766,566	646,13
766,745	687,09
766,924	646,13
767,104	762,87
767,283	715,77
767,462	760,82
767,642	785,4
767,821	603,13
768	639,99
768,179	748,53
768,358	721,91
768,538	818,16
768,717	580,6
768,896	687,09
769,075	705,53
769,254	685,05
769,433	637,94
769,612	627,7
769,791	527,35
769,97	644,09
770,149	566,26
770,328	599,03
770,507	588,79
770,686	599,03
770,865	592,89
771,044	498,68
771,223	652,28
771,402	510,97
771,581	637,94
771,76	508,92
771,939	533,5
772,118	541,69
772,297	531,45
772,475	574,46
772,654	601,08
772,833	619,51
773,012	603,13
773,191	562,17
773,369	564,22
773,548	560,12
773,727	494,58
773,906	523,26
774,084	508,92
774,263	420,86
774,442	572,41
774,62	502,78
774,799	431,1
774,977	527,35
775,156	515,06
775,335	443,39
775,513	498,68
775,692	470,01
775,87	574,46
776,049	496,63
776,227	500,73
776,406	517,11
776,584	480,25
776,763	515,06
776,941	406,52
777,119	449,53
777,298	439,29
777,476	455,67
777,655	422,91
777,833	386,04
778,011	539,64
778,19	515,06
778,368	377,85
778,546	363,51
778,725	504,82
778,903	439,29
779,081	379,9
779,259	414,71
779,437	408,57
779,616	383,99
779,794	414,71
779,972	476,15
780,15	412,67
780,328	338,94
780,506	465,91
780,685	345,08
780,863	349,18
781,041	279,55
781,219	431,1
781,397	388,09
781,575	343,03
781,753	400,38
781,931	332,79
782,109	355,32
782,287	410,62
782,465	416,76
782,643	369,66
782,82	355,32
782,998	361,47
783,176	392,19
783,354	232,44
783,532	367,61
783,71	297,98
783,888	359,42
784,065	269,31
784,243	349,18
784,421	349,18
784,599	334,84
784,776	375,8
784,954	375,8
785,132	293,88
785,31	304,12
785,487	287,74
785,665	285,69
785,842	273,4
786,02	447,48
786,198	300,03
786,375	283,64
786,553	293,88
786,73	312,32
786,908	277,5
787,085	287,74
787,263	218,11
787,44	271,36
787,618	351,23
787,795	207,87
787,973	277,5
788,15	238,59
788,328	275,45
788,505	386,04
788,682	269,31
788,86	310,27
789,037	295,93
789,215	293,88
789,392	238,59
789,569	324,6
789,746	361,47
789,924	357,37
790,101	304,12
790,278	277,5
790,455	310,27
790,633	197,63
790,81	265,21
790,987	171,01
791,164	271,36
791,341	269,31
791,518	187,39
791,695	295,93
791,873	230,4
792,05	263,16
792,227	144,38
792,404	220,16
792,581	189,44
792,758	334,84
792,935	183,29
793,112	173,05
793,289	240,64
793,466	275,45
793,643	238,59
793,82	123,9
793,996	107,52
794,173	297,98
794,35	136,19
794,527	203,77
794,704	252,92
794,881	197,63
795,057	197,63
795,234	162,81
795,411	246,78
795,588	230,4
795,765	209,92
795,941	205,82
796,118	207,87
796,295	295,93
796,471	181,25
796,648	189,44
796,825	230,4
797,001	254,97
797,178	312,32
797,354	222,2
797,531	166,91
797,708	187,39
797,884	199,68
798,061	197,63
798,237	197,63
798,414	160,77
798,59	224,25
798,767	199,68
798,943	193,53
799,119	220,16
799,296	205,82
799,472	232,44
799,649	152,57
799,825	164,86
800,001	263,16
800,178	105,47
800,354	263,16
800,53	142,33
800,707	185,34
800,883	105,47
801,059	132,09
801,235	209,92
801,411	187,39
801,588	222,2
801,764	328,7
801,94	130,05
802,116	164,86
802,292	91,13
802,468	211,96
802,645	187,39
802,821	220,16
802,997	140,29
803,173	140,29
803,349	187,39
803,525	82,94
803,701	185,34
803,877	154,62
804,053	181,25
804,229	160,77
804,405	214,01
804,581	187,39
804,756	222,2
804,932	130,05
805,108	123,9
805,284	173,05
805,46	136,19
805,636	113,66
805,812	154,62
805,987	185,34
806,163	189,44
806,339	302,08
806,515	123,9
806,69	128
806,866	209,92
807,042	80,89
807,217	148,48
807,393	220,16
807,569	130,05
807,744	203,77
807,92	271,36
808,096	130,05
808,271	154,62
808,447	148,48
808,622	99,33
808,798	144,38
808,973	130,05
809,149	179,2
809,324	70,65
809,5	128
809,675	103,42
809,851	115,71
810,026	80,89
810,201	214,01
810,377	148,48
810,552	123,9
810,728	156,67
810,903	164,86
811,078	173,05
811,253	160,77
811,429	70,65
811,604	99,33
811,779	234,49
811,955	107,52
812,13	181,25
812,305	140,29
812,48	89,09
812,655	146,43
812,83	209,92
813,006	103,42
813,181	115,71
813,356	78,85
813,531	125,95
813,706	156,67
813,881	76,8
814,056	93,18
814,231	144,38
814,406	82,94
814,581	99,33
814,756	74,75
814,931	119,81
815,106	113,66
815,281	93,18
815,456	156,67
815,631	25,6
815,805	171,01
815,98	74,75
816,155	37,89
816,33	76,8
816,505	56,32
816,68	138,24
816,854	29,7
817,029	74,75
817,204	107,52
817,379	66,56
817,553	138,24
817,728	44,03
817,903	68,61
818,077	140,29
818,252	87,04
818,427	144,38
818,601	216,06
818,776	50,18
818,95	31,74
819,125	148,48
819,299	115,71
819,474	115,71
819,648	113,66
819,823	58,37
819,997	148,48
820,172	25,6
820,346	123,9
820,521	87,04
820,695	50,18
820,87	68,61
821,044	91,13
821,218	136,19
821,393	99,33
821,567	89,09
821,741	19,46
821,916	33,79
822,09	173,05
822,264	171,01
822,438	52,22
822,613	123,9
822,787	132,09
822,961	58,37
823,135	48,13
823,309	41,98
823,483	99,33
823,658	107,52
823,832	150,53
824,006	-15,36
824,18	78,85
824,354	111,61
824,528	136,19
824,702	107,52
824,876	29,7
825,05	101,37
825,224	54,27
825,398	74,75
825,572	48,13
825,746	-31,74
825,92	154,62
826,093	74,75
826,267	152,57
826,441	82,94
826,615	130,05
826,789	97,28
826,963	150,53
827,136	44,03
827,31	21,5
827,484	44,03
827,658	97,28
827,831	103,42
828,005	25,6
828,179	-33,79
828,353	74,75
828,526	25,6
828,7	99,33
828,873	78,85
829,047	48,13
829,221	54,27
829,394	54,27
829,568	56,32
829,741	15,36
829,915	25,6
830,088	74,75
830,262	91,13
830,435	46,08
830,609	117,76
830,782	46,08
830,956	95,23
831,129	78,85
831,302	29,7
831,476	25,6
831,649	-7,17
831,822	70,65
831,996	222,2
832,169	70,65
832,342	-46,08
832,516	113,66
832,689	-35,84
832,862	-3,07
833,035	177,15
833,209	74,75
833,382	105,47
833,555	58,37
833,728	7,17
833,901	54,27
834,074	97,28
834,247	74,75
834,42	91,13
834,594	-15,36
834,767	80,89
834,94	111,61
835,113	62,46
835,286	101,37
835,459	37,89
835,632	46,08
835,805	93,18
835,977	72,7
836,15	72,7
836,323	58,37
836,496	39,94
836,669	72,7
836,842	44,03
837,015	123,9
837,188	46,08
837,36	107,52
837,533	66,56
837,706	68,61
837,879	148,48
838,051	97,28
838,224	117,76
838,397	58,37
838,569	27,65
838,742	25,6
838,915	21,5
839,087	99,33
839,26	41,98
839,433	54,27
839,605	205,82
839,778	37,89
839,95	107,52
840,123	115,71
840,295	80,89
840,468	3,07
840,64	19,46
840,813	95,23
840,985	33,79
841,158	70,65
841,33	80,89
841,502	97,28
841,675	173,05
841,847	201,72
842,019	-7,17
842,192	50,18
842,364	9,22
842,536	48,13
842,709	101,37
842,881	39,94
843,053	-7,17
843,225	15,36
843,398	140,29
843,57	72,7
843,742	50,18
843,914	158,72
844,086	78,85
844,258	48,13
844,43	17,41
844,602	23,55
844,775	41,98
844,947	46,08
845,119	48,13
845,291	177,15
845,463	130,05
845,635	7,17
845,807	58,37
845,979	46,08
846,15	13,31
846,322	5,12
846,494	72,7
846,666	46,08
846,838	70,65
847,01	80,89
847,182	-15,36
847,354	41,98
847,525	70,65
847,697	115,71
847,869	27,65
848,041	91,13
848,212	58,37
848,384	48,13
848,556	39,94
848,727	48,13
848,899	74,75
849,071	37,89
849,242	123,9
849,414	80,89
849,585	25,6
849,757	-7,17
849,929	132,09
850,1	58,37
850,272	46,08
850,443	23,55
850,615	48,13
850,786	48,13
850,958	1,02
851,129	107,52
851,3	101,37
851,472	31,74
851,643	9,22
851,815	17,41
851,986	74,75
852,157	60,42
852,329	162,81
852,5	29,7
852,671	89,09
852,842	13,31
853,014	-19,46
853,185	132,09
853,356	-27,65
853,527	7,17
853,698	11,26
853,87	-7,17
854,041	156,67
854,212	103,42
854,383	52,22
854,554	9,22
854,725	97,28
854,896	23,55
855,067	23,55
855,238	17,41
855,409	64,51
855,58	50,18
855,751	33,79
855,922	70,65
856,093	195,58
856,264	72,7
856,435	27,65
856,606	50,18
856,777	95,23
856,948	99,33
857,118	-19,46
857,289	-25,6
857,46	87,04
857,631	76,8
857,802	37,89
857,972	74,75
858,143	58,37
858,314	-3,07
858,484	-17,41
858,655	31,74
858,826	80,89
858,996	99,33
859,167	119,81
859,338	62,46
859,508	29,7
859,679	58,37
859,849	-11,26
860,02	-21,5
860,19	29,7
860,361	37,89
860,531	33,79
860,702	105,47
860,872	72,7
861,043	58,37
861,213	66,56
861,384	70,65
861,554	9,22
861,724	-13,31
861,895	64,51
862,065	107,52
862,235	142,33
862,406	48,13
862,576	-25,6
862,746	33,79
862,916	-25,6
863,087	115,71
863,257	-29,7
863,427	-25,6
863,597	72,7
863,767	113,66
863,937	33,79
864,108	95,23
864,278	-7,17
864,448	64,51
864,618	84,99
864,788	-27,65
864,958	9,22
865,128	33,79
865,298	11,26
865,468	89,09
865,638	19,46
865,808	19,46
865,978	113,66
866,148	9,22
866,318	19,46
866,487	109,57
866,657	25,6
866,827	74,75
866,997	-7,17
867,167	119,81
867,337	58,37
867,506	78,85
867,676	50,18
867,846	7,17
868,016	-17,41
868,185	-7,17
868,355	29,7
868,525	13,31
868,694	41,98
868,864	58,37
869,034	17,41
869,203	21,5
869,373	1,02
869,542	64,51
869,712	-25,6
869,881	58,37
870,051	23,55
870,22	58,37
870,39	50,18
870,559	1,02
870,729	-15,36
870,898	107,52
871,068	35,84
871,237	-7,17
871,406	-50,18
871,576	97,28
871,745	41,98
871,914	17,41
872,084	1,02
872,253	41,98
872,422	-41,98
872,591	-11,26
872,761	25,6
872,93	353,27
873,099	5,12
873,268	44,03
873,437	48,13
873,607	-60,42
873,776	68,61
873,945	25,6
874,114	-7,17
874,283	-15,36
874,452	64,51
874,621	35,84
874,79	50,18
874,959	13,31
875,128	19,46
875,297	1,02
875,466	80,89
875,635	-9,22
875,804	58,37
875,973	-50,18
876,142	52,22
876,31	-15,36
876,479	15,36
876,648	46,08
876,817	29,7
876,986	56,32
877,155	44,03
877,323	-23,55
877,492	48,13
877,661	107,52
877,829	5,12
877,998	-44,03
878,167	31,74
878,335	-23,55
878,504	1,02
878,673	-56,32
878,841	-27,65
879,01	48,13
879,178	-7,17
879,347	72,7
879,515	25,6
879,684	99,33
879,852	3,07
880,021	-33,79
880,189	3,07
880,358	-15,36
880,526	179,2
880,695	-41,98
880,863	37,89
881,031	15,36
881,2	33,79
881,368	1,02
881,536	25,6
881,705	109,57
881,873	-13,31
882,041	50,18
882,21	-25,6
882,378	99,33
882,546	-76,8
882,714	39,94
882,882	-15,36
883,05	58,37
883,219	-23,55
883,387	5,12
883,555	-48,13
883,723	17,41
883,891	17,41
884,059	1,02
884,227	82,94
884,395	-7,17
884,563	62,46
884,731	13,31
884,899	84,99
885,067	5,12
885,235	9,22
885,403	50,18
885,571	7,17
885,739	41,98
