Data from USB4F035431__9__14-15-57-706.txt Node

Date: Wed Feb 12 14:15:57 CET 2025
User: Versuch 234
Spectrometer: USB4F03543
Trigger mode: 4
Integration Time (sec): 1,000000E-1
Scans to average: 1
Electric dark correction enabled: true
Nonlinearity correction enabled: false
Boxcar width: 0
XAxis mode: Wavelengths
Number of Pixels in Spectrum: 3648
>>>>>Begin Spectral Data<<<<<
179,969	-195,75
180,181	-195,75
180,394	-195,75
180,606	-203,94
180,819	-238,76
181,031	50
181,243	146,26
181,456	19,29
181,668	7
181,88	-11,43
182,093	-46,25
182,305	-62,63
182,518	-70,83
182,73	33,62
182,942	11,09
183,155	-72,87
183,367	-3,24
183,579	47,96
183,791	62,29
184,004	-3,24
184,216	52,05
184,428	15,19
184,641	-72,87
184,853	37,72
185,065	-76,97
185,277	0,85
185,49	68,44
185,702	-72,87
185,914	-95,4
186,126	-52,39
186,338	74,58
186,551	-40,11
186,763	47,96
186,975	-56,49
187,187	64,34
187,399	-66,73
187,612	74,58
187,824	39,76
188,036	-31,91
188,248	39,76
188,46	-9,39
188,672	58,2
188,885	-62,63
189,097	-7,34
189,309	-17,58
189,521	-19,63
189,733	119,64
189,945	62,29
190,157	50
190,369	-33,96
190,581	-56,49
190,794	-31,91
191,006	-79,02
191,218	9,05
191,43	-9,39
191,642	-83,11
191,854	17,24
192,066	7
192,278	27,48
192,49	-101,55
192,702	-50,35
192,914	-11,43
193,126	-19,63
193,338	25,43
193,55	-68,78
193,762	39,76
193,974	-7,34
194,186	-60,59
194,398	-60,59
194,61	45,91
194,822	21,33
195,034	50
195,246	15,19
195,457	-58,54
195,669	103,25
195,881	-1,19
196,093	78,68
196,305	31,57
196,517	-124,07
196,729	66,39
196,941	33,62
197,153	56,15
197,365	90,96
197,576	11,09
197,788	-13,48
198	0,85
198,212	127,83
198,424	62,29
198,636	-109,74
198,847	-64,68
199,059	33,62
199,271	-33,96
199,483	17,24
199,695	21,33
199,906	82,77
200,118	-9,39
200,33	54,1
200,542	279,38
200,753	-31,91
200,965	-7,34
201,177	-3,24
201,389	17,24
201,6	-81,07
201,812	-21,67
202,024	9,05
202,235	-79,02
202,447	50
202,659	23,38
202,871	70,48
203,082	-25,77
203,294	-50,35
203,506	70,48
203,717	-7,34
203,929	56,15
204,141	-23,72
204,352	41,81
204,564	23,38
204,775	-89,26
204,987	70,48
205,199	74,58
205,41	-52,39
205,622	31,57
205,833	-13,48
206,045	9,05
206,257	-15,53
206,468	-79,02
206,68	-23,72
206,891	29,52
207,103	-68,78
207,314	-68,78
207,526	-13,48
207,737	-25,77
207,949	7
208,16	-9,39
208,372	19,29
208,583	-7,34
208,795	-25,77
209,006	-48,3
209,218	-9,39
209,429	-27,82
209,641	-25,77
209,852	29,52
210,064	9,05
210,275	17,24
210,487	56,15
210,698	64,34
210,909	-72,87
211,121	31,57
211,332	25,43
211,544	133,97
211,755	183,12
211,966	37,72
212,178	-58,54
212,389	25,43
212,6	-50,35
212,812	101,2
213,023	-7,34
213,234	43,86
213,446	66,39
213,657	-89,26
213,868	-23,72
214,08	9,05
214,291	-3,24
214,502	50
214,714	-7,34
214,925	-52,39
215,136	-7,34
215,347	95,06
215,559	35,67
215,77	-83,11
215,981	93,01
216,192	-52,39
216,404	0,85
216,615	52,05
216,826	19,29
217,037	-15,53
217,249	-27,82
217,46	70,48
217,671	-7,34
217,882	-7,34
218,093	-1,19
218,304	13,14
218,516	4,95
218,727	0,85
218,938	-72,87
219,149	56,15
219,36	-9,39
219,571	-9,39
219,782	-64,68
219,993	15,19
220,205	-64,68
220,416	50
220,627	41,81
220,838	25,43
221,049	113,49
221,26	66,39
221,471	45,91
221,682	23,38
221,893	37,72
222,104	29,52
222,315	-50,35
222,526	-89,26
222,737	-7,34
222,948	-25,77
223,159	-9,39
223,37	25,43
223,581	-60,59
223,792	41,81
224,003	-33,96
224,214	17,24
224,425	-7,34
224,636	-44,2
224,847	-7,34
225,058	-23,72
225,269	11,09
225,48	-27,82
225,691	-11,43
225,902	37,72
226,112	-42,15
226,323	-21,67
226,534	2,9
226,745	-83,11
226,956	-58,54
227,167	-36,01
227,378	54,1
227,589	-40,11
227,799	66,39
228,01	29,52
228,221	7
228,432	-25,77
228,643	-23,72
228,853	-9,39
229,064	-33,96
229,275	4,95
229,486	-46,25
229,697	-81,07
229,907	47,96
230,118	-13,48
230,329	-40,11
230,54	-15,53
230,75	25,43
230,961	95,06
231,172	-9,39
231,383	-89,26
231,593	-31,91
231,804	-64,68
232,015	93,01
232,225	-9,39
232,436	-60,59
232,647	-3,24
232,857	11,09
233,068	33,62
233,279	21,33
233,489	23,38
233,7	-19,63
233,91	13,14
234,121	-15,53
234,332	13,14
234,542	2,9
234,753	-27,82
234,964	39,76
235,174	-23,72
235,385	27,48
235,595	-9,39
235,806	45,91
236,016	-23,72
236,227	-50,35
236,437	-72,87
236,648	-54,44
236,858	-56,49
237,069	-27,82
237,279	-54,44
237,49	37,72
237,7	39,76
237,911	-31,91
238,121	-31,91
238,332	-15,53
238,542	-23,72
238,753	-5,29
238,963	-15,53
239,174	-3,24
239,384	-33,96
239,595	15,19
239,805	0,85
240,015	17,24
240,226	-58,54
240,436	88,92
240,647	45,91
240,857	25,43
241,067	-15,53
241,278	136,02
241,488	41,81
241,698	-19,63
241,909	43,86
242,119	-56,49
242,329	7
242,54	56,15
242,75	-42,15
242,96	9,05
243,171	-42,15
243,381	-3,24
243,591	-105,64
243,801	45,91
244,012	80,72
244,222	-13,48
244,432	-52,39
244,642	29,52
244,853	-23,72
245,063	23,38
245,273	4,95
245,483	13,14
245,694	-74,92
245,904	17,24
246,114	62,29
246,324	-54,44
246,534	-5,29
246,744	41,81
246,955	-105,64
247,165	-17,58
247,375	41,81
247,585	-66,73
247,795	-11,43
248,005	47,96
248,215	9,05
248,425	17,24
248,636	99,16
248,846	54,1
249,056	-50,35
249,266	-60,59
249,476	-11,43
249,686	9,05
249,896	-50,35
250,106	-9,39
250,316	35,67
250,526	58,2
250,736	-46,25
250,946	37,72
251,156	-7,34
251,366	-25,77
251,576	-23,72
251,786	97,11
251,996	-58,54
252,206	-70,83
252,416	31,57
252,626	-38,06
252,836	-95,4
253,046	-15,53
253,256	17,24
253,466	43,86
253,676	-40,11
253,885	58,2
254,095	15,19
254,305	21,33
254,515	99,16
254,725	33,62
254,935	-40,11
255,145	17,24
255,355	-13,48
255,564	37,72
255,774	-23,72
255,984	88,92
256,194	31,57
256,404	-33,96
256,614	37,72
256,823	41,81
257,033	9,05
257,243	-11,43
257,453	29,52
257,662	17,24
257,872	64,34
258,082	-15,53
258,292	-36,01
258,501	74,58
258,711	109,4
258,921	70,48
259,131	-56,49
259,34	37,72
259,55	-13,48
259,76	-56,49
259,969	-42,15
260,179	-68,78
260,389	-19,63
260,598	86,87
260,808	21,33
261,018	-23,72
261,227	74,58
261,437	-89,26
261,647	-19,63
261,856	-33,96
262,066	21,33
262,275	115,54
262,485	-29,87
262,694	17,24
262,904	25,43
263,114	54,1
263,323	-38,06
263,533	0,85
263,742	-48,3
263,952	-23,72
264,161	-15,53
264,371	0,85
264,58	-27,82
264,79	-50,35
264,999	-7,34
265,209	80,72
265,418	-42,15
265,628	17,24
265,837	-23,72
266,047	-19,63
266,256	39,76
266,466	-46,25
266,675	-15,53
266,884	66,39
267,094	-29,87
267,303	82,77
267,513	9,05
267,722	0,85
267,931	21,33
268,141	-15,53
268,35	-15,53
268,559	64,34
268,769	-64,68
268,978	-33,96
269,187	39,76
269,397	-23,72
269,606	-105,64
269,815	21,33
270,025	29,52
270,234	27,48
270,443	0,85
270,653	-58,54
270,862	50
271,071	-68,78
271,28	39,76
271,49	13,14
271,699	-56,49
271,908	23,38
272,117	4,95
272,327	-72,87
272,536	-23,72
272,745	-1,19
272,954	23,38
273,163	-21,67
273,372	25,43
273,582	4,95
273,791	-9,39
274	54,1
274,209	-46,25
274,418	39,76
274,627	7
274,836	-33,96
275,046	62,29
275,255	-15,53
275,464	17,24
275,673	-40,11
275,882	9,05
276,091	4,95
276,3	-11,43
276,509	7
276,718	41,81
276,927	15,19
277,136	-17,58
277,345	-33,96
277,554	33,62
277,763	-1,19
277,972	-15,53
278,181	39,76
278,39	50
278,599	-15,53
278,808	-44,2
279,017	41,81
279,226	-85,16
279,435	33,62
279,644	7
279,853	72,53
280,062	58,2
280,271	-60,59
280,48	0,85
280,688	-17,58
280,897	15,19
281,106	-46,25
281,315	-76,97
281,524	-31,91
281,733	-44,2
281,942	-56,49
282,151	-23,72
282,359	-91,31
282,568	-17,58
282,777	90,96
282,986	17,24
283,195	68,44
283,403	15,19
283,612	72,53
283,821	-91,31
284,03	15,19
284,238	-7,34
284,447	78,68
284,656	-27,82
284,865	25,43
285,073	-48,3
285,282	9,05
285,491	31,57
285,699	-60,59
285,908	15,19
286,117	-21,67
286,325	82,77
286,534	142,16
286,743	68,44
286,951	43,86
287,16	39,76
287,369	41,81
287,577	-15,53
287,786	41,81
287,995	52,05
288,203	37,72
288,412	-3,24
288,62	-9,39
288,829	-48,3
289,037	-31,91
289,246	-60,59
289,455	-54,44
289,663	33,62
289,872	47,96
290,08	-31,91
290,289	17,24
290,497	-74,92
290,706	17,24
290,914	-42,15
291,123	-21,67
291,331	7
291,54	105,3
291,748	88,92
291,957	103,25
292,165	-5,29
292,373	-89,26
292,582	-3,24
292,79	31,57
292,999	33,62
293,207	25,43
293,415	-7,34
293,624	-87,21
293,832	-1,19
294,041	0,85
294,249	9,05
294,457	-85,16
294,666	-9,39
294,874	-9,39
295,082	-23,72
295,291	39,76
295,499	-40,11
295,707	41,81
295,915	15,19
296,124	41,81
296,332	-13,48
296,54	-42,15
296,749	78,68
296,957	78,68
297,165	-15,53
297,373	-48,3
297,581	-31,91
297,79	13,14
297,998	-58,54
298,206	-42,15
298,414	-7,34
298,622	43,86
298,831	50
299,039	-40,11
299,247	39,76
299,455	25,43
299,663	72,53
299,871	62,29
300,08	-25,77
300,288	-5,29
300,496	-17,58
300,704	-48,3
300,912	-7,34
301,12	-23,72
301,328	21,33
301,536	-9,39
301,744	-13,48
301,952	-15,53
302,16	-89,26
302,368	-19,63
302,576	-50,35
302,784	9,05
302,992	-23,72
303,2	-5,29
303,408	25,43
303,616	-21,67
303,824	7
304,032	45,91
304,24	74,58
304,448	39,76
304,656	41,81
304,864	60,24
305,072	45,91
305,28	31,57
305,488	-9,39
305,696	-13,48
305,904	76,63
306,111	-70,83
306,319	-40,11
306,527	56,15
306,735	9,05
306,943	-9,39
307,151	-40,11
307,359	-40,11
307,566	54,1
307,774	54,1
307,982	45,91
308,19	-15,53
308,398	-15,53
308,605	-56,49
308,813	-15,53
309,021	-44,2
309,229	50
309,436	-31,91
309,644	37,72
309,852	7
310,06	80,72
310,267	25,43
310,475	35,67
310,683	0,85
310,89	11,09
311,098	64,34
311,306	25,43
311,513	13,14
311,721	7
311,929	54,1
312,136	2,9
312,344	-27,82
312,552	-1,19
312,759	-68,78
312,967	31,57
313,174	-27,82
313,382	-9,39
313,589	-9,39
313,797	-7,34
314,005	90,96
314,212	-25,77
314,42	-33,96
314,627	-19,63
314,835	-33,96
315,042	-44,2
315,25	-38,06
315,457	-79,02
315,665	-81,07
315,872	-13,48
316,08	52,05
316,287	-21,67
316,495	228,18
316,702	-72,87
316,909	-36,01
317,117	0,85
317,324	-25,77
317,532	56,15
317,739	27,48
317,946	66,39
318,154	58,2
318,361	41,81
318,569	-5,29
318,776	-68,78
318,983	-27,82
319,191	31,57
319,398	-17,58
319,605	-17,58
319,813	23,38
320,02	-154,79
320,227	64,34
320,434	107,35
320,642	-11,43
320,849	-40,11
321,056	-66,73
321,264	23,38
321,471	68,44
321,678	56,15
321,885	-19,63
322,092	52,05
322,3	4,95
322,507	-85,16
322,714	4,95
322,921	-48,3
323,128	-60,59
323,336	21,33
323,543	19,29
323,75	82,77
323,957	29,52
324,164	-31,91
324,371	58,2
324,578	-56,49
324,786	23,38
324,993	19,29
325,2	4,95
325,407	-68,78
325,614	37,72
325,821	47,96
326,028	82,77
326,235	66,39
326,442	-52,39
326,649	-38,06
326,856	-15,53
327,063	-87,21
327,27	-17,58
327,477	62,29
327,684	-9,39
327,891	-25,77
328,098	56,15
328,305	45,91
328,512	-9,39
328,719	33,62
328,926	64,34
329,133	0,85
329,34	156,5
329,546	4,95
329,753	-19,63
329,96	-19,63
330,167	80,72
330,374	-36,01
330,581	50
330,788	-33,96
330,995	29,52
331,201	-17,58
331,408	-1,19
331,615	-56,49
331,822	-46,25
332,029	50
332,235	29,52
332,442	-66,73
332,649	11,09
332,856	-31,91
333,062	-3,24
333,269	13,14
333,476	7
333,683	-19,63
333,889	2,9
334,096	-3,24
334,303	56,15
334,509	-15,53
334,716	33,62
334,923	37,72
335,129	47,96
335,336	-5,29
335,543	-15,53
335,749	4,95
335,956	107,35
336,163	-76,97
336,369	-1,19
336,576	45,91
336,782	21,33
336,989	-54,44
337,196	62,29
337,402	-42,15
337,609	-60,59
337,815	29,52
338,022	45,91
338,228	33,62
338,435	109,4
338,641	-1,19
338,848	74,58
339,054	41,81
339,261	7
339,467	-40,11
339,674	31,57
339,88	84,82
340,087	13,14
340,293	7
340,5	25,43
340,706	-5,29
340,912	0,85
341,119	0,85
341,325	-23,72
341,532	-52,39
341,738	68,44
341,944	23,38
342,151	11,09
342,357	-56,49
342,563	62,29
342,77	-23,72
342,976	-74,92
343,182	50
343,389	31,57
343,595	-33,96
343,801	17,24
344,007	60,24
344,214	-31,91
344,42	7
344,626	-27,82
344,832	-103,59
345,039	13,14
345,245	-19,63
345,451	-23,72
345,657	17,24
345,864	-27,82
346,07	25,43
346,276	11,09
346,482	84,82
346,688	45,91
346,894	-62,63
347,1	13,14
347,307	31,57
347,513	13,14
347,719	-40,11
347,925	127,83
348,131	-19,63
348,337	58,2
348,543	-31,91
348,749	-9,39
348,955	47,96
349,161	-40,11
349,367	21,33
349,573	64,34
349,779	74,58
349,985	-3,24
350,191	-31,91
350,397	25,43
350,603	80,72
350,809	74,58
351,015	76,63
351,221	78,68
351,427	41,81
351,633	29,52
351,839	56,15
352,045	37,72
352,251	80,72
352,457	37,72
352,663	-31,91
352,869	-15,53
353,075	62,29
353,28	17,24
353,486	47,96
353,692	33,62
353,898	0,85
354,104	-3,24
354,31	111,44
354,515	-9,39
354,721	45,91
354,927	25,43
355,133	-60,59
355,339	88,92
355,544	113,49
355,75	90,96
355,956	-3,24
356,162	97,11
356,367	-89,26
356,573	37,72
356,779	-31,91
356,984	35,67
357,19	72,53
357,396	-19,63
357,602	66,39
357,807	21,33
358,013	33,62
358,218	-31,91
358,424	-21,67
358,63	-15,53
358,835	-9,39
359,041	9,05
359,247	19,29
359,452	-40,11
359,658	15,19
359,863	13,14
360,069	123,73
360,274	58,2
360,48	152,4
360,685	-29,87
360,891	-1,19
361,097	21,33
361,302	-44,2
361,508	93,01
361,713	-7,34
361,918	74,58
362,124	27,48
362,329	66,39
362,535	2,9
362,74	23,38
362,946	-7,34
363,151	19,29
363,357	-31,91
363,562	2,9
363,767	-3,24
363,973	31,57
364,178	23,38
364,383	-42,15
364,589	56,15
364,794	7
365	-21,67
365,205	-1,19
365,41	45,91
365,615	115,54
365,821	-27,82
366,026	47,96
366,231	15,19
366,437	41,81
366,642	-25,77
366,847	45,91
367,052	78,68
367,258	-42,15
367,463	0,85
367,668	35,67
367,873	80,72
368,078	37,72
368,284	-81,07
368,489	56,15
368,694	47,96
368,899	82,77
369,104	13,14
369,309	58,2
369,515	-40,11
369,72	66,39
369,925	56,15
370,13	33,62
370,335	82,77
370,54	56,15
370,745	72,53
370,95	31,57
371,155	80,72
371,36	7
371,565	50
371,77	62,29
371,975	-17,58
372,18	64,34
372,385	131,92
372,59	-3,24
372,795	21,33
373	95,06
373,205	41,81
373,41	70,48
373,615	-83,11
373,82	13,14
374,025	15,19
374,23	-60,59
374,435	21,33
374,64	17,24
374,845	58,2
375,05	25,43
375,254	-15,53
375,459	2,9
375,664	7
375,869	17,24
376,074	37,72
376,279	-74,92
376,483	45,91
376,688	-13,48
376,893	107,35
377,098	25,43
377,303	2,9
377,507	9,05
377,712	72,53
377,917	88,92
378,122	35,67
378,326	9,05
378,531	-50,35
378,736	50
378,94	2,9
379,145	47,96
379,35	21,33
379,554	23,38
379,759	-7,34
379,964	43,86
380,168	-19,63
380,373	9,05
380,578	50
380,782	146,26
380,987	58,2
381,191	39,76
381,396	103,25
381,601	95,06
381,805	25,43
382,01	140,12
382,214	29,52
382,419	39,76
382,623	90,96
382,828	-17,58
383,032	-72,87
383,237	-66,73
383,441	-11,43
383,646	133,97
383,85	-23,72
384,055	88,92
384,259	72,53
384,464	21,33
384,668	-40,11
384,872	-52,39
385,077	-31,91
385,281	70,48
385,486	-27,82
385,69	113,49
385,894	115,54
386,099	39,76
386,303	45,91
386,507	50
386,712	99,16
386,916	13,14
387,12	56,15
387,325	125,78
387,529	50
387,733	90,96
387,937	54,1
388,142	21,33
388,346	-9,39
388,55	90,96
388,754	66,39
388,959	62,29
389,163	131,92
389,367	119,64
389,571	-27,82
389,775	90,96
389,98	60,24
390,184	66,39
390,388	66,39
390,592	113,49
390,796	66,39
391	154,45
391,204	45,91
391,409	111,44
391,613	58,2
391,817	62,29
392,021	99,16
392,225	50
392,429	13,14
392,633	37,72
392,837	-7,34
393,041	66,39
393,245	41,81
393,449	-33,96
393,653	80,72
393,857	111,44
394,061	129,88
394,265	131,92
394,469	107,35
394,673	125,78
394,877	131,92
395,081	162,64
395,285	156,5
395,489	84,82
395,693	121,68
395,896	66,39
396,1	131,92
396,304	105,3
396,508	17,24
396,712	144,21
396,916	140,12
397,12	129,88
397,323	142,16
397,527	181,07
397,731	146,26
397,935	164,69
398,139	189,27
398,342	260,95
398,546	162,64
398,75	138,07
398,954	172,88
399,157	211,79
399,361	273,23
399,565	140,12
399,769	230,23
399,972	193,36
400,176	258,9
400,38	260,95
400,583	246,61
400,787	240,47
400,991	289,62
401,194	238,42
401,398	262,99
401,601	244,56
401,805	291,66
402,009	193,36
402,212	281,43
402,416	398,16
402,619	181,07
402,823	258,9
403,026	209,75
403,23	252,75
403,433	303,95
403,637	242,51
403,841	287,57
404,044	262,99
404,247	213,84
404,451	260,95
404,654	283,47
404,858	277,33
405,061	295,76
405,265	262,99
405,468	303,95
405,672	316,24
405,875	410,45
406,078	236,37
406,282	195,41
406,485	324,43
406,689	295,76
406,892	332,62
407,095	303,95
407,299	267,09
407,502	320,34
407,705	357,2
407,909	283,47
408,112	342,86
408,315	369,49
408,518	377,68
408,722	336,72
408,925	285,52
409,128	385,87
409,331	400,21
409,535	441,17
409,738	385,87
409,941	410,45
410,144	357,2
410,347	430,93
410,551	367,44
410,754	410,45
410,957	359,25
411,16	432,97
411,363	451,41
411,566	416,59
411,769	441,17
411,973	402,26
412,176	459,6
412,379	490,32
412,582	502,61
412,785	490,32
412,988	430,93
413,191	424,78
413,394	449,36
413,597	394,06
413,8	383,82
414,003	521,04
414,206	496,46
414,409	480,08
414,612	498,51
414,815	521,04
415,018	510,8
415,221	510,8
415,424	508,75
415,627	555,85
415,83	590,67
416,033	498,51
416,235	576,33
416,438	584,52
416,641	648,01
416,844	512,85
417,047	543,57
417,25	502,61
417,453	619,34
417,655	535,37
417,858	580,43
418,061	557,9
418,264	582,48
418,467	631,63
418,669	672,59
418,872	705,35
419,075	605
419,278	701,26
419,48	656,2
419,683	656,2
419,886	672,59
420,089	688,97
420,291	766,79
420,494	795,47
420,697	727,88
420,899	951,11
421,102	746,31
421,305	807,75
421,507	842,57
421,71	797,51
421,912	926,54
422,115	932,68
422,318	852,81
422,52	949,06
422,723	1008,45
422,925	971,59
423,128	910,15
423,33	922,44
423,533	983,88
423,735	1008,45
423,938	1049,41
424,14	1114,95
424,343	1203,01
424,545	1182,53
424,748	1166,15
424,95	1155,91
425,153	1186,63
425,355	1334,08
425,558	1401,66
425,76	1366,85
425,962	1323,84
426,165	1299,27
426,367	1442,62
426,57	1549,12
426,772	1495,87
426,974	1592,13
427,177	1483,58
427,379	1579,84
427,581	1620,8
427,784	1721,15
427,986	1639,23
428,188	1784,63
428,39	1835,83
428,593	1825,59
428,795	2009,91
428,997	2046,77
429,2	2011,96
429,402	2155,32
429,604	2024,25
429,806	2106,17
430,008	2169,65
430,211	2227
430,413	2323,25
430,615	2308,91
430,817	2581,29
431,019	2579,25
431,221	2675,5
431,423	2423,6
431,626	2747,18
431,828	2759,47
432,03	2870,06
432,232	2847,53
432,434	3154,73
432,636	3183,4
432,838	3250,98
433,04	3228,45
433,242	3433,25
433,444	3457,82
433,646	3515,17
433,848	3506,98
434,05	3818,27
434,252	3592,99
434,454	3912,47
434,656	4064,02
434,858	4154,13
435,06	4274,96
435,262	4422,42
435,464	4557,58
435,666	4764,43
435,868	4719,37
436,07	4952,84
436,271	5186,31
436,473	5071,62
436,675	5278,47
436,877	5253,89
437,079	5169,93
437,281	5587,71
437,482	5767,93
437,684	6087,42
437,886	5907,2
438,088	5946,11
438,29	6134,52
438,491	6445,81
438,693	6503,15
438,895	6695,66
439,097	7457,51
439,298	7324,39
439,5	7377,64
439,702	7531,23
439,903	7336,68
440,105	7963,36
440,307	8522,45
440,508	8594,13
440,71	8846,03
440,912	8491,73
441,113	8745,68
441,315	9159,37
441,517	9509,57
441,718	9919,17
441,92	10068,67
442,121	10060,48
442,323	10468,02
442,524	10822,32
442,726	10771,12
442,928	11211,43
443,129	11725,47
443,331	11106,99
443,532	11834,02
443,734	12313,24
443,935	12769,94
444,136	12081,82
444,338	12915,34
444,539	12976,78
444,741	13582,98
444,942	13486,73
445,144	13984,38
445,345	14383,74
445,546	14793,33
445,748	14670,45
445,949	14869,11
446,151	15616,62
446,352	16020,06
446,553	16063,07
446,755	15975,01
446,956	17451,6
447,157	17922,63
447,359	18121,28
447,56	18459,2
447,761	18629,18
447,962	19532,33
448,164	19845,67
448,365	18895,41
448,566	20073
448,767	20140,58
448,969	21256,72
449,17	21328,4
449,371	21226
449,572	22110,72
449,773	22796,79
449,974	23314,93
450,176	24005,1
450,377	24867,29
450,578	25190,87
450,779	24240,61
450,98	24138,21
451,181	24869,34
451,382	25262,55
451,583	26833,34
451,784	26900,92
451,986	29763,98
452,187	27836,84
452,388	28275,11
452,589	27357,62
452,79	30800,26
452,991	28873,12
453,192	31367,54
453,393	30290,31
453,594	32971,1
453,795	31414,65
453,995	31770,99
454,196	32524,65
454,397	33835,35
454,598	34267,47
454,799	35043,65
455	36038,96
455,201	36575,53
455,402	35709,24
455,603	35811,63
455,804	38334,73
456,004	39819,51
456,205	37789,97
456,406	37546,26
456,607	38625,54
456,808	39727,35
457,008	38842,63
457,209	38572,3
457,41	41818,33
457,611	39708,92
457,811	41019,62
458,012	42158,29
458,213	43268,29
458,414	42023,12
458,614	42170,58
458,815	42510,54
459,016	43460,8
459,216	44443,82
459,417	44443,82
459,618	43897,02
459,818	44198,07
460,019	43206,85
460,22	43706,55
460,42	45119,65
460,621	43315,39
460,821	44755,11
461,022	44431,54
461,223	43372,74
461,423	45146,28
461,624	45330,59
461,824	45273,25
462,025	42895,56
462,225	45373,6
462,426	45525,15
462,626	43888,82
462,827	43956,41
463,027	43364,54
463,228	44533,93
463,428	42629,32
463,628	44292,27
463,829	45125,8
464,029	42162,39
464,23	43866,3
464,43	42168,53
464,63	41928,92
464,831	42739,91
465,031	42664,14
465,231	43141,32
465,432	43405,5
465,632	41294,05
465,832	39420,16
466,033	41666,78
466,233	40456,43
466,433	39133,44
466,634	40225,01
466,834	40177,9
467,034	38406,41
467,234	40556,78
467,435	38392,08
467,635	38846,72
467,835	35324,22
468,035	37347,61
468,235	35420,47
468,436	34814,27
468,636	34982,21
468,836	33626,45
469,036	35064,13
469,236	33159,52
469,436	33235,29
469,636	33294,68
469,836	32102,76
470,037	32164,2
470,237	31572,34
470,437	31406,45
470,637	30228,87
470,837	30497,16
471,037	30863,74
471,237	31105,4
471,437	30003,6
471,637	30310,79
471,837	30628,23
472,037	29313,43
472,237	28787,1
472,437	29399,44
472,637	29675,92
472,837	28842,4
473,036	27615,66
473,236	28058,03
473,436	26984,89
473,636	27744,69
473,836	26657,21
474,036	27593,14
474,236	27435,44
474,436	27136,44
474,635	26341,83
474,835	25813,45
475,035	26792,38
475,235	27333,04
475,435	26214,85
475,634	25434,58
475,834	26495,43
476,034	25637,33
476,234	25647,57
476,433	25487,82
476,633	24791,52
476,833	24775,13
477,033	24121,83
477,232	24642,01
477,432	22995,45
477,632	24003,05
477,831	23060,98
478,031	22866,42
478,231	23448,05
478,43	22956,54
478,63	22600,19
478,829	22254,08
479,029	22231,55
479,229	22102,53
479,428	21979,65
479,628	21625,36
479,827	21651,98
480,027	21099,03
480,226	20879,89
480,426	20785,69
480,625	20019,75
480,825	20765,21
481,024	20150,82
481,224	20226,59
481,423	19827,24
481,623	19429,93
481,822	19317,29
482,021	19407,41
482,221	19300,91
482,42	18354,75
482,62	18707
482,819	18119,23
483,018	17959,49
483,218	17723,97
483,417	17513,03
483,616	17420,88
483,816	17013,33
484,015	16984,66
484,214	16831,06
484,414	16548,44
484,613	16046,69
484,812	16038,5
485,011	15964,77
485,211	15354,48
485,41	15686,25
485,609	15325,8
485,808	14598,77
486,008	15030,9
486,207	14479,99
486,406	14531,19
486,605	13851,27
486,804	13947,52
487,003	13693,57
487,203	13689,48
487,402	13197,96
487,601	13007,5
487,8	12907,15
487,999	12769,94
488,198	12825,23
488,397	12681,88
488,596	12460,7
488,795	12018,33
488,994	12047,01
489,193	11739,81
489,392	11725,47
489,591	11393,7
489,79	11432,61
489,989	11244,2
490,188	11049,64
490,387	10793,65
490,586	10412,73
490,785	10433,21
490,984	10154,68
491,183	10306,23
491,382	9898,69
491,581	9953,98
491,779	9757,38
491,978	9691,84
492,177	9423,56
492,376	9257,67
492,575	9241,29
492,774	9036,49
492,972	8989,39
493,171	8831,69
493,37	8688,34
493,569	8782,54
493,768	8708,82
493,966	8229,59
494,165	8200,92
494,364	8401,62
494,563	7979,74
494,761	8207,06
494,96	7971,55
495,159	7828,19
495,357	7486,18
495,556	7543,52
495,755	7346,92
495,953	7338,73
496,152	7197,42
496,35	6957,8
496,549	7049,96
496,748	6834,93
496,946	6918,89
497,145	6798,06
497,343	6578,93
497,542	6482,67
497,74	6419,19
497,939	6546,16
498,137	6290,17
498,336	6111,99
498,534	6019,83
498,733	6075,13
498,931	6025,98
499,13	5790,46
499,328	5579,52
499,527	5796,6
499,725	5395,2
499,924	5460,74
500,122	5329,67
500,32	5286,66
500,519	5192,45
500,717	5004,04
500,915	5010,18
501,114	5098,25
501,312	4948,75
501,51	4768,52
501,709	4588,3
501,907	4786,96
502,105	4557,58
502,304	4647,69
502,502	4465,43
502,7	4350,74
502,898	4344,6
503,097	4211,48
503,295	4219,67
503,493	4170,52
503,691	4090,65
503,889	4104,98
504,088	3984,15
504,286	4119,32
504,484	3900,19
504,682	3957,53
504,88	3869,47
505,078	3857,18
505,276	3724,06
505,474	3568,41
505,672	3621,66
505,871	3644,19
506,069	3644,19
506,267	3400,48
506,465	3425,06
506,663	3382,05
506,861	3255,08
507,059	3423,01
507,257	3263,27
507,455	3318,56
507,653	3310,37
507,851	3236,64
508,049	3162,92
508,246	3183,4
508,444	3070,76
508,642	3136,29
508,84	3212,07
509,038	3068,71
509,236	3056,42
509,434	3015,46
509,632	2986,79
509,829	3056,42
510,027	2954,02
510,225	2925,35
510,423	2931,5
510,621	2704,17
510,818	2908,97
511,016	2712,36
511,214	2775,85
511,412	2806,57
511,609	2671,4
511,807	2753,32
512,005	2695,98
512,203	2698,03
512,4	2505,52
512,598	2569,01
512,796	2499,38
512,993	2657,07
513,191	2464,56
513,389	2482,99
513,586	2497,33
513,784	2335,54
513,981	2593,58
514,179	2523,95
514,377	2462,51
514,574	2446,13
514,772	2394,93
514,969	2396,98
515,167	2401,07
515,364	2347,83
515,562	2130,74
515,759	2237,24
515,957	2245,43
516,154	2175,8
516,352	2224,95
516,549	2265,91
516,746	2188,08
516,944	2157,36
517,141	2202,42
517,339	2065,21
517,536	2038,58
517,733	1997,62
517,931	2069,3
518,128	2057,01
518,325	2079,54
518,523	2157,36
518,72	2161,46
518,917	2145,08
519,115	2147,12
519,312	2188,08
519,509	2097,97
519,707	2102,07
519,904	2089,78
520,101	2114,36
520,298	2065,21
520,495	2126,64
520,693	2005,81
520,89	2020,15
521,087	2005,81
521,284	2044,73
521,481	2038,58
521,678	1971
521,876	2001,72
522,073	1973,05
522,27	2054,97
522,467	2085,69
522,664	1997,62
522,861	1934,14
523,058	2102,07
523,255	1940,28
523,452	2005,81
523,649	1844,03
523,846	1850,17
524,043	2011,96
524,24	1952,57
524,437	1866,55
524,634	1856,31
524,831	1934,14
525,028	1882,94
525,225	1868,6
525,422	1760,06
525,619	1821,5
525,816	1659,71
526,013	1864,5
526,209	1844,03
526,406	1655,61
526,603	1721,15
526,8	1680,19
526,997	1801,02
527,194	1897,27
527,39	1839,93
527,587	1792,83
527,784	1866,55
527,981	1803,07
528,177	1727,29
528,374	1786,68
528,571	1923,9
528,768	1737,53
528,964	1758,01
529,161	1721,15
529,358	1807,16
529,554	1768,25
529,751	1721,15
529,948	1672
530,144	1692,48
530,341	1653,56
530,537	1737,53
530,734	1647,42
530,931	1674,04
531,127	1655,61
531,324	1573,69
531,52	1598,27
531,717	1696,57
531,913	1614,65
532,11	1635,13
532,306	1540,93
532,503	1672
532,699	1579,84
532,896	1753,91
533,092	1563,45
533,289	1547,07
533,485	2179,89
533,682	1696,57
533,878	1594,17
534,074	1600,32
534,271	1614,65
534,467	1649,47
534,664	1647,42
534,86	1598,27
535,056	1532,73
535,253	1708,86
535,449	1633,08
535,645	1532,73
535,841	1614,65
536,038	1647,42
536,234	1561,41
536,43	1647,42
536,626	1635,13
536,823	1536,83
537,019	1495,87
537,215	1481,53
537,411	1682,24
537,607	1606,46
537,804	1512,25
538	1393,47
538,196	1577,79
538,392	1461,06
538,588	1549,12
538,784	1401,66
538,98	1332,03
539,176	1405,76
539,373	1532,73
539,569	1450,82
539,765	1422,14
539,961	1493,82
540,157	1499,97
540,353	1397,57
540,549	1493,82
540,745	1520,45
540,941	1432,38
541,137	1520,45
541,333	1471,29
541,528	1450,82
541,724	1317,7
541,92	1393,47
542,116	1389,38
542,312	1473,34
542,508	1334,08
542,704	1438,53
542,9	1381,18
543,096	1489,73
543,291	1467,2
543,487	1422,14
543,683	1385,28
543,879	1465,15
544,075	1409,86
544,27	1379,14
544,466	1389,38
544,662	1416
544,858	1366,85
545,053	1356,61
545,249	1377,09
545,445	1405,76
545,64	1401,66
545,836	1295,17
546,032	1274,69
546,227	1270,59
546,423	1348,42
546,619	1297,22
546,814	1319,75
547,01	1299,27
547,205	1315,65
547,401	1405,76
547,597	1446,72
547,792	1358,66
547,988	1440,58
548,183	1381,18
548,379	1409,86
548,574	1282,88
548,77	1352,51
548,965	1332,03
549,161	1295,17
549,356	1270,59
549,552	1311,55
549,747	1422,14
549,942	1348,42
550,138	1364,8
550,333	1278,79
550,529	1284,93
550,724	1274,69
550,919	1352,51
551,115	1321,79
551,31	1389,38
551,505	1352,51
551,701	1319,75
551,896	1229,63
552,091	1387,33
552,287	1327,94
552,482	1401,66
552,677	1323,84
552,872	1262,4
553,067	1329,99
553,263	1307,46
553,458	1229,63
553,653	1307,46
553,848	1307,46
554,043	1446,72
554,239	1229,63
554,434	1256,26
554,629	1266,5
554,824	1268,55
555,019	1229,63
555,214	1254,21
555,409	1268,55
555,604	1303,36
555,799	1340,22
555,994	1186,63
556,189	1205,06
556,384	1143,62
556,579	1135,43
556,774	1266,5
556,969	1239,87
557,164	1117
557,359	1209,15
557,554	1164,1
557,749	1184,58
557,944	1229,63
558,139	1205,06
558,334	1186,63
558,529	1188,68
558,724	1225,54
558,918	1252,16
559,113	1133,38
559,308	1184,58
559,503	1198,92
559,698	1112,9
559,893	1096,52
560,087	1082,18
560,282	1090,37
560,477	1252,16
560,672	1100,61
560,866	1098,56
561,061	1151,81
561,256	1139,52
561,45	1160
561,645	1166,15
561,84	1221,44
562,034	1137,48
562,229	1217,35
562,424	1160
562,618	1106,76
562,813	1162,05
563,008	1139,52
563,202	1174,34
563,397	1133,38
563,591	1221,44
563,786	1205,06
563,98	1033,03
564,175	1139,52
564,369	1188,68
564,564	1141,57
564,758	1157,96
564,953	1080,13
565,147	1090,37
565,342	1157,96
565,536	1127,24
565,731	1188,68
565,925	1170,24
566,119	1039,17
566,314	1123,14
566,508	1094,47
566,703	1131,33
566,897	1110,85
567,091	1119,04
567,286	1131,33
567,48	1073,99
567,674	1094,47
567,868	1022,79
568,063	1035,08
568,257	1039,17
568,451	1039,17
568,646	1088,32
568,84	1049,41
569,034	961,35
569,228	1018,69
569,422	1069,89
569,616	965,45
569,811	875,34
570,005	1057,61
570,199	1039,17
570,393	1057,61
570,587	1073,99
570,781	994,12
570,975	1024,84
571,169	1039,17
571,364	1069,89
571,558	994,12
571,752	1119,04
571,946	1170,24
572,14	1110,85
572,334	1000,26
572,528	1033,03
572,722	1012,55
572,916	953,16
573,109	1131,33
573,303	1024,84
573,497	1024,84
573,691	1106,76
573,885	1071,94
574,079	1008,45
574,273	1030,98
574,467	1090,37
574,661	918,34
574,854	1008,45
575,048	951,11
575,242	1030,98
575,436	992,07
575,63	985,93
575,823	983,88
576,017	1073,99
576,211	930,63
576,405	983,88
576,598	981,83
576,792	936,78
576,986	942,92
577,18	1022,79
577,373	906,06
577,567	967,49
577,761	846,66
577,954	987,97
578,148	918,34
578,341	947,01
578,535	1051,46
578,729	1057,61
578,922	1012,55
579,116	979,78
579,309	932,68
579,503	1002,31
579,696	977,73
579,89	1008,45
580,083	1033,03
580,277	987,97
580,47	1106,76
580,664	1000,26
580,857	1055,56
581,051	1033,03
581,244	1035,08
581,437	1125,19
581,631	1069,89
581,824	1141,57
582,018	1026,89
582,211	967,49
582,404	959,3
582,598	959,3
582,791	1145,67
582,984	1033,03
583,178	1069,89
583,371	1020,74
583,564	985,93
583,757	1041,22
583,951	1073,99
584,144	979,78
584,337	1026,89
584,53	1026,89
584,723	965,45
584,917	1024,84
585,11	963,4
585,303	979,78
585,496	965,45
585,689	920,39
585,882	899,91
586,075	1045,32
586,268	914,25
586,462	1016,65
586,655	1016,65
586,848	1317,7
587,041	1508,16
587,234	1743,67
587,427	2079,54
587,62	2349,87
587,813	2597,68
588,006	2482,99
588,199	2401,07
588,392	2171,7
588,585	2175,8
588,777	1964,86
588,97	1712,96
589,163	1645,37
589,356	1559,36
589,549	1358,66
589,742	1270,59
589,935	1123,14
590,128	1090,37
590,32	1162,05
590,513	1196,87
590,706	1057,61
590,899	1057,61
591,092	1110,85
591,284	1022,79
591,477	877,38
591,67	1008,45
591,863	916,3
592,055	879,43
592,248	920,39
592,441	881,48
592,633	918,34
592,826	826,18
593,019	680,78
593,211	910,15
593,404	828,23
593,596	832,33
593,789	799,56
593,982	885,58
594,174	826,18
594,367	836,42
594,559	928,58
594,752	949,06
594,944	770,89
595,137	885,58
595,329	942,92
595,522	881,48
595,714	938,82
595,907	834,38
596,099	883,53
596,292	910,15
596,484	891,72
596,676	805,71
596,869	820,04
597,061	924,49
597,253	779,08
597,446	817,99
597,638	826,18
597,83	924,49
598,023	1028,93
598,215	834,38
598,407	869,19
598,6	934,73
598,792	983,88
598,984	852,81
599,176	899,91
599,369	926,54
599,561	901,96
599,753	877,38
599,945	881,48
600,137	840,52
600,329	938,82
600,522	842,57
600,714	844,62
600,906	770,89
601,098	899,91
601,29	842,57
601,482	852,81
601,674	879,43
601,866	848,71
602,058	824,14
602,25	910,15
602,442	934,73
602,634	879,43
602,826	817,99
603,018	914,25
603,21	910,15
603,402	951,11
603,594	957,25
603,786	893,77
603,978	947,01
604,17	873,29
604,362	914,25
604,554	926,54
604,745	961,35
604,937	850,76
605,129	889,67
605,321	828,23
605,513	811,85
605,704	883,53
605,896	842,57
606,088	899,91
606,28	877,38
606,471	891,72
606,663	801,61
606,855	744,27
607,047	867,14
607,238	813,9
607,43	817,99
607,622	885,58
607,813	789,32
608,005	777,03
608,197	883,53
608,388	779,08
608,58	768,84
608,771	930,63
608,963	865,1
609,154	834,38
609,346	840,52
609,537	871,24
609,729	803,66
609,921	768,84
610,112	861
610,303	863,05
610,495	826,18
610,686	852,81
610,878	750,41
611,069	711,5
611,261	811,85
611,452	768,84
611,643	756,55
611,835	789,32
612,026	803,66
612,217	766,79
612,409	738,12
612,6	852,81
612,791	785,23
612,983	799,56
613,174	871,24
613,365	828,23
613,557	713,55
613,748	754,51
613,939	803,66
614,13	688,97
614,321	705,35
614,513	852,81
614,704	779,08
614,895	691,02
615,086	711,5
615,277	684,87
615,468	664,4
615,659	697,16
615,851	713,55
616,042	791,37
616,233	688,97
616,424	828,23
616,615	738,12
616,806	650,06
616,997	639,82
617,188	721,74
617,379	744,27
617,57	760,65
617,761	744,27
617,952	820,04
618,143	787,27
618,334	736,07
618,524	746,31
618,715	672,59
618,906	723,79
619,097	738,12
619,288	736,07
619,479	779,08
619,67	721,74
619,86	664,4
620,051	680,78
620,242	742,22
620,433	709,45
620,624	734,03
620,814	828,23
621,005	822,09
621,196	697,16
621,386	744,27
621,577	811,85
621,768	777,03
621,958	648,01
622,149	672,59
622,34	725,83
622,53	748,36
622,721	676,68
622,912	811,85
623,102	713,55
623,293	750,41
623,483	768,84
623,674	858,95
623,864	801,61
624,055	738,12
624,245	748,36
624,436	705,35
624,626	779,08
624,817	756,55
625,007	680,78
625,198	662,35
625,388	781,13
625,579	797,51
625,769	727,88
625,959	717,64
626,15	738,12
626,34	684,87
626,531	850,76
626,721	746,31
626,911	693,07
627,101	664,4
627,292	742,22
627,482	740,17
627,672	736,07
627,863	635,72
628,053	863,05
628,243	754,51
628,433	721,74
628,623	754,51
628,814	666,44
629,004	699,21
629,194	750,41
629,384	740,17
629,574	703,31
629,764	801,61
629,955	750,41
630,145	791,37
630,335	758,6
630,525	678,73
630,715	748,36
630,905	697,16
631,095	703,31
631,285	705,35
631,475	688,97
631,665	846,66
631,855	736,07
632,045	695,11
632,235	648,01
632,425	705,35
632,615	736,07
632,805	729,93
632,994	713,55
633,184	781,13
633,374	703,31
633,564	719,69
633,754	697,16
633,944	738,12
634,133	621,39
634,323	746,31
634,513	697,16
634,703	770,89
634,893	736,07
635,082	693,07
635,272	762,7
635,462	785,23
635,651	809,8
635,841	729,93
636,031	688,97
636,221	672,59
636,41	697,16
636,6	639,82
636,789	797,51
636,979	817,99
637,169	695,11
637,358	695,11
637,548	746,31
637,737	734,03
637,927	631,63
638,116	762,7
638,306	684,87
638,495	731,98
638,685	664,4
638,874	672,59
639,064	711,5
639,253	650,06
639,443	678,73
639,632	680,78
639,822	582,48
640,011	686,92
640,2	752,46
640,39	684,87
640,579	678,73
640,768	705,35
640,958	650,06
641,147	605
641,336	645,96
641,526	643,92
641,715	729,93
641,904	697,16
642,093	695,11
642,283	705,35
642,472	711,5
642,661	686,92
642,85	736,07
643,039	596,81
643,228	723,79
643,418	654,16
643,607	670,54
643,796	650,06
643,985	643,92
644,174	656,2
644,363	666,44
644,552	572,24
644,741	652,11
644,93	701,26
645,119	656,2
645,308	664,4
645,497	648,01
645,686	664,4
645,875	586,57
646,064	564,04
646,253	656,2
646,442	570,19
646,631	596,81
646,82	641,87
647,009	574,28
647,198	672,59
647,387	574,28
647,575	664,4
647,764	996,17
647,953	621,39
648,142	590,67
648,331	635,72
648,519	607,05
648,708	654,16
648,897	529,23
649,086	725,83
649,274	633,68
649,463	598,86
649,652	639,82
649,84	580,43
650,029	660,3
650,218	602,96
650,406	592,72
650,595	586,57
650,784	602,96
650,972	623,44
651,161	637,77
651,349	514,89
651,538	668,49
651,726	570,19
651,915	648,01
652,104	637,77
652,292	615,24
652,481	637,77
652,669	623,44
652,857	588,62
653,046	680,78
653,234	590,67
653,423	633,68
653,611	582,48
653,8	574,28
653,988	570,19
654,176	547,66
654,365	578,38
654,553	686,92
654,741	533,33
654,93	492,37
655,118	533,33
655,306	543,57
655,494	449,36
655,683	451,41
655,871	514,89
656,059	594,76
656,247	568,14
656,436	572,24
656,624	572,24
656,812	506,7
657	627,53
657,188	672,59
657,376	623,44
657,564	598,86
657,753	609,1
657,941	508,75
658,129	602,96
658,317	549,71
658,505	500,56
658,693	533,33
658,881	549,71
659,069	551,76
659,257	598,86
659,445	637,77
659,633	584,52
659,821	648,01
660,009	619,34
660,197	582,48
660,384	469,84
660,572	566,09
660,76	562
660,948	547,66
661,136	592,72
661,324	512,85
661,512	658,25
661,699	605
661,887	654,16
662,075	549,71
662,263	598,86
662,451	631,63
662,638	596,81
662,826	607,05
663,014	617,29
663,201	598,86
663,389	619,34
663,577	580,43
663,764	572,24
663,952	490,32
664,14	555,85
664,327	590,67
664,515	568,14
664,702	529,23
664,89	607,05
665,078	508,75
665,265	508,75
665,453	592,72
665,64	506,7
665,828	611,15
666,015	529,23
666,203	611,15
666,39	584,52
666,578	555,85
666,765	529,23
666,952	539,47
667,14	568,14
667,327	496,46
667,515	594,76
667,702	596,81
667,889	521,04
668,077	539,47
668,264	562
668,451	539,47
668,638	539,47
668,826	506,7
669,013	566,09
669,2	650,06
669,388	596,81
669,575	594,76
669,762	461,65
669,949	566,09
670,136	1151,81
670,323	582,48
670,511	516,94
670,698	506,7
670,885	537,42
671,072	514,89
671,259	492,37
671,446	566,09
671,633	467,79
671,82	523,09
672,007	459,6
672,194	514,89
672,381	498,51
672,568	605
672,755	482,13
672,942	471,89
673,129	492,37
673,316	533,33
673,503	504,65
673,69	533,33
673,877	488,27
674,064	512,85
674,251	514,89
674,437	557,9
674,624	514,89
674,811	555,85
674,998	437,07
675,185	426,83
675,372	498,51
675,558	531,28
675,745	490,32
675,932	473,93
676,119	414,54
676,305	447,31
676,492	465,74
676,679	490,32
676,865	547,66
677,052	537,42
677,239	449,36
677,425	385,87
677,612	551,76
677,798	518,99
677,985	469,84
678,172	527,18
678,358	531,28
678,545	443,21
678,731	484,17
678,918	533,33
679,104	486,22
679,291	668,49
679,477	445,26
679,664	385,87
679,85	459,6
680,036	588,62
680,223	406,35
680,409	478,03
680,596	492,37
680,782	496,46
680,968	435,02
681,155	467,79
681,341	465,74
681,527	465,74
681,714	463,69
681,9	357,2
682,086	541,52
682,272	435,02
682,459	402,26
682,645	525,13
682,831	475,98
683,017	492,37
683,204	539,47
683,39	461,65
683,576	480,08
683,762	402,26
683,948	447,31
684,134	340,82
684,32	443,21
684,506	545,61
684,693	529,23
684,879	361,3
685,065	359,25
685,251	260,95
685,437	293,71
685,623	385,87
685,809	334,67
685,995	316,24
686,181	306
686,366	326,48
686,552	334,67
686,738	279,38
686,924	369,49
687,11	275,28
687,296	324,43
687,482	349,01
687,668	293,71
687,853	332,62
688,039	332,62
688,225	283,47
688,411	326,48
688,597	406,35
688,782	326,48
688,968	375,63
689,154	322,38
689,34	410,45
689,525	445,26
689,711	306
689,897	363,34
690,082	418,64
690,268	361,3
690,454	287,57
690,639	369,49
690,825	385,87
691,01	389,97
691,196	432,97
691,381	353,1
691,567	332,62
691,753	332,62
691,938	342,86
692,124	306
692,309	320,34
692,494	318,29
692,68	377,68
692,865	275,28
693,051	326,48
693,236	375,63
693,422	281,43
693,607	312,14
693,792	273,23
693,978	289,62
694,163	285,52
694,348	328,53
694,534	387,92
694,719	344,91
694,904	328,53
695,089	385,87
695,275	371,54
695,46	367,44
695,645	375,63
695,83	422,73
696,016	254,8
696,201	287,57
696,386	299,86
696,571	377,68
696,756	306
696,941	344,91
697,126	230,23
697,311	258,9
697,497	355,15
697,682	351,06
697,867	385,87
698,052	359,25
698,237	377,68
698,422	326,48
698,607	394,06
698,792	318,29
698,977	361,3
699,162	451,41
699,347	406,35
699,531	295,76
699,716	285,52
699,901	326,48
700,086	312,14
700,271	291,66
700,456	334,67
700,641	314,19
700,825	293,71
701,01	385,87
701,195	381,78
701,38	312,14
701,565	369,49
701,749	377,68
701,934	295,76
702,119	344,91
702,303	336,72
702,488	318,29
702,673	336,72
702,857	336,72
703,042	262,99
703,227	330,58
703,411	283,47
703,596	463,69
703,78	291,66
703,965	291,66
704,15	299,86
704,334	336,72
704,519	344,91
704,703	301,9
704,888	291,66
705,072	262,99
705,257	209,75
705,441	293,71
705,625	400,21
705,81	344,91
705,994	285,52
706,179	236,37
706,363	291,66
706,547	203,6
706,732	441,17
706,916	377,68
707,1	328,53
707,285	377,68
707,469	383,82
707,653	318,29
707,837	324,43
708,022	334,67
708,206	375,63
708,39	236,37
708,574	330,58
708,759	330,58
708,943	312,14
709,127	260,95
709,311	361,3
709,495	326,48
709,679	238,42
709,863	299,86
710,047	328,53
710,231	308,05
710,415	277,33
710,6	301,9
710,784	281,43
710,968	357,2
711,152	295,76
711,336	312,14
711,519	301,9
711,703	279,38
711,887	389,97
712,071	260,95
712,255	328,53
712,439	357,2
712,623	377,68
712,807	301,9
712,991	375,63
713,174	306
713,358	279,38
713,542	287,57
713,726	330,58
713,91	271,19
714,093	285,52
714,277	244,56
714,461	301,9
714,645	262,99
714,828	203,6
715,012	242,51
715,196	158,55
715,379	262,99
715,563	240,47
715,747	197,46
715,93	148,31
716,114	189,27
716,297	193,36
716,481	205,65
716,664	209,75
716,848	191,31
717,031	187,22
717,215	62,29
717,398	140,12
717,582	152,4
717,765	213,84
717,949	131,92
718,132	170,83
718,316	80,72
718,499	95,06
718,682	193,36
718,866	82,77
719,049	197,46
719,233	185,17
719,416	176,98
719,599	283,47
719,782	203,6
719,966	113,49
720,149	160,59
720,332	205,65
720,515	234,32
720,699	222,03
720,882	162,64
721,065	160,59
721,248	224,08
721,431	293,71
721,615	140,12
721,798	181,07
721,981	154,45
722,164	90,96
722,347	254,8
722,53	234,32
722,713	148,31
722,896	172,88
723,079	138,07
723,262	127,83
723,445	230,23
723,628	125,78
723,811	164,69
723,994	154,45
724,177	170,83
724,36	252,75
724,543	144,21
724,726	160,59
724,909	136,02
725,091	254,8
725,274	164,69
725,457	150,36
725,64	164,69
725,823	203,6
726,006	99,16
726,188	133,97
726,371	318,29
726,554	156,5
726,737	166,74
726,919	146,26
727,102	172,88
727,285	164,69
727,467	195,41
727,65	183,12
727,833	119,64
728,015	125,78
728,198	127,83
728,38	179,03
728,563	140,12
728,746	111,44
728,928	107,35
729,111	136,02
729,293	197,46
729,476	228,18
729,658	156,5
729,841	121,68
730,023	238,42
730,205	152,4
730,388	148,31
730,57	232,27
730,753	256,85
730,935	246,61
731,117	285,52
731,3	90,96
731,482	179,03
731,664	156,5
731,847	191,31
732,029	297,81
732,211	222,03
732,394	97,11
732,576	142,16
732,758	246,61
732,94	234,32
733,122	219,99
733,305	293,71
733,487	219,99
733,669	236,37
733,851	246,61
734,033	232,27
734,215	193,36
734,397	164,69
734,58	211,79
734,762	254,8
734,944	156,5
735,126	232,27
735,308	271,19
735,49	176,98
735,672	146,26
735,854	199,51
736,036	242,51
736,218	322,38
736,399	205,65
736,581	203,6
736,763	185,17
736,945	260,95
737,127	242,51
737,309	277,33
737,491	250,71
737,672	238,42
737,854	209,75
738,036	269,14
738,218	254,8
738,4	176,98
738,581	189,27
738,763	154,45
738,945	217,94
739,127	189,27
739,308	197,46
739,49	125,78
739,672	213,84
739,853	260,95
740,035	185,17
740,216	242,51
740,398	295,76
740,58	228,18
740,761	197,46
740,943	213,84
741,124	238,42
741,306	232,27
741,487	197,46
741,669	197,46
741,85	156,5
742,032	197,46
742,213	179,03
742,394	215,89
742,576	244,56
742,757	230,23
742,939	160,59
743,12	107,35
743,301	156,5
743,483	213,84
743,664	164,69
743,845	213,84
744,027	203,6
744,208	181,07
744,389	244,56
744,57	160,59
744,752	244,56
744,933	170,83
745,114	273,23
745,295	252,75
745,476	150,36
745,657	138,07
745,839	222,03
746,02	277,33
746,201	252,75
746,382	217,94
746,563	228,18
746,744	226,13
746,925	211,79
747,106	160,59
747,287	193,36
747,468	226,13
747,649	168,79
747,83	211,79
748,011	271,19
748,192	195,41
748,373	156,5
748,554	168,79
748,735	172,88
748,915	205,65
749,096	201,55
749,277	172,88
749,458	258,9
749,639	230,23
749,82	203,6
750	144,21
750,181	217,94
750,362	172,88
750,543	230,23
750,723	146,26
750,904	152,4
751,085	164,69
751,265	258,9
751,446	222,03
751,627	203,6
751,807	172,88
751,988	207,7
752,169	185,17
752,349	164,69
752,53	189,27
752,71	146,26
752,891	238,42
753,071	176,98
753,252	115,54
753,432	176,98
753,613	219,99
753,793	181,07
753,974	209,75
754,154	226,13
754,334	193,36
754,515	181,07
754,695	244,56
754,876	248,66
755,056	254,8
755,236	252,75
755,417	201,55
755,597	197,46
755,777	121,68
755,957	252,75
756,138	238,42
756,318	172,88
756,498	260,95
756,678	203,6
756,859	262,99
757,039	215,89
757,219	256,85
757,399	140,12
757,579	183,12
757,759	99,16
757,939	107,35
758,119	107,35
758,3	156,5
758,48	131,92
758,66	-3,24
758,84	-105,64
759,02	119,64
759,2	17,24
759,38	9,05
759,56	113,49
759,74	19,29
759,919	-5,29
760,099	123,73
760,279	70,48
760,459	105,3
760,639	66,39
760,819	95,06
760,999	-11,43
761,178	-31,91
761,358	25,43
761,538	107,35
761,718	0,85
761,898	41,81
762,077	-19,63
762,257	74,58
762,437	95,06
762,616	60,24
762,796	86,87
762,976	82,77
763,155	41,81
763,335	72,53
763,515	82,77
763,694	138,07
763,874	105,3
764,053	146,26
764,233	111,44
764,413	93,01
764,592	131,92
764,772	222,03
764,951	152,4
765,131	172,88
765,31	131,92
765,489	185,17
765,669	140,12
765,848	119,64
766,028	66,39
766,207	64,34
766,386	185,17
766,566	140,12
766,745	109,4
766,924	162,64
767,104	170,83
767,283	131,92
767,462	156,5
767,642	176,98
767,821	129,88
768	136,02
768,179	170,83
768,358	189,27
768,538	209,75
768,717	152,4
768,896	181,07
769,075	176,98
769,254	95,06
769,433	123,73
769,612	62,29
769,791	105,3
769,97	123,73
770,149	121,68
770,328	41,81
770,507	140,12
770,686	140,12
770,865	156,5
771,044	156,5
771,223	148,31
771,402	162,64
771,581	103,25
771,76	33,62
771,939	129,88
772,118	109,4
772,297	119,64
772,475	146,26
772,654	197,46
772,833	95,06
773,012	250,71
773,191	164,69
773,369	187,22
773,548	205,65
773,727	86,87
773,906	183,12
774,084	195,41
774,263	111,44
774,442	82,77
774,62	109,4
774,799	25,43
774,977	156,5
775,156	189,27
775,335	146,26
775,513	82,77
775,692	187,22
775,87	207,7
776,049	99,16
776,227	148,31
776,406	131,92
776,584	72,53
776,763	107,35
776,941	25,43
777,119	115,54
777,298	-3,24
777,476	193,36
777,655	66,39
777,833	123,73
778,011	144,21
778,19	150,36
778,368	152,4
778,546	27,48
778,725	197,46
778,903	127,83
779,081	146,26
779,259	121,68
779,437	97,11
779,616	123,73
779,794	109,4
779,972	195,41
780,15	80,72
780,328	64,34
780,506	82,77
780,685	142,16
780,863	107,35
781,041	101,2
781,219	88,92
781,397	156,5
781,575	74,58
781,753	168,79
781,931	31,57
782,109	107,35
782,287	31,57
782,465	144,21
782,643	82,77
782,82	97,11
782,998	201,55
783,176	168,79
783,354	23,38
783,532	131,92
783,71	90,96
783,888	88,92
784,065	23,38
784,243	105,3
784,421	56,15
784,599	86,87
784,776	41,81
784,954	60,24
785,132	99,16
785,31	86,87
785,487	181,07
785,665	129,88
785,842	80,72
786,02	205,65
786,198	148,31
786,375	97,11
786,553	33,62
786,73	39,76
786,908	-3,24
787,085	115,54
787,263	103,25
787,44	50
787,618	105,3
787,795	74,58
787,973	17,24
788,15	109,4
788,328	105,3
788,505	76,63
788,682	107,35
788,86	45,91
789,037	43,86
789,215	86,87
789,392	74,58
789,569	136,02
789,746	117,59
789,924	17,24
790,101	174,93
790,278	160,59
790,455	-36,01
790,633	136,02
790,81	179,03
790,987	-3,24
791,164	84,82
791,341	62,29
791,518	39,76
791,695	50
791,873	123,73
792,05	64,34
792,227	54,1
792,404	17,24
792,581	29,52
792,758	111,44
792,935	29,52
793,112	-25,77
793,289	82,77
793,466	93,01
793,643	62,29
793,82	9,05
793,996	56,15
794,173	174,93
794,35	7
794,527	115,54
794,704	121,68
794,881	72,53
795,057	56,15
795,234	35,67
795,411	97,11
795,588	25,43
795,765	29,52
795,941	2,9
796,118	41,81
796,295	183,12
796,471	78,68
796,648	31,57
796,825	123,73
797,001	70,48
797,178	82,77
797,354	99,16
797,531	50
797,708	74,58
797,884	119,64
798,061	41,81
798,237	0,85
798,414	-1,19
798,59	123,73
798,767	35,67
798,943	29,52
799,119	207,7
799,296	-5,29
799,472	88,92
799,649	9,05
799,825	-3,24
800,001	25,43
800,178	33,62
800,354	25,43
800,53	41,81
800,707	15,19
800,883	50
801,059	41,81
801,235	125,78
801,411	-11,43
801,588	-7,34
801,764	156,5
801,94	58,2
802,116	33,62
802,292	-31,91
802,468	66,39
802,645	82,77
802,821	39,76
802,997	62,29
803,173	-23,72
803,349	-31,91
803,525	7
803,701	72,53
803,877	25,43
804,053	50
804,229	13,14
804,405	84,82
804,581	50
804,756	47,96
804,932	-23,72
805,108	88,92
805,284	-29,87
805,46	93,01
805,636	90,96
805,812	13,14
805,987	84,82
806,163	21,33
806,339	156,5
806,515	-15,53
806,69	33,62
806,866	68,44
807,042	72,53
807,217	47,96
807,393	41,81
807,569	-29,87
807,744	82,77
807,92	164,69
808,096	54,1
808,271	31,57
808,447	-17,58
808,622	-21,67
808,798	-25,77
808,973	58,2
809,149	56,15
809,324	58,2
809,5	2,9
809,675	4,95
809,851	23,38
810,026	35,67
810,201	127,83
810,377	50
810,552	-48,3
810,728	23,38
810,903	86,87
811,078	74,58
811,253	41,81
811,429	-33,96
811,604	-50,35
811,779	-11,43
811,955	-56,49
812,13	-44,2
812,305	29,52
812,48	-3,24
812,655	33,62
812,83	113,49
813,006	33,62
813,181	70,48
813,356	-62,63
813,531	4,95
813,706	15,19
813,881	15,19
814,056	-54,44
814,231	90,96
814,406	-17,58
814,581	-74,92
814,756	78,68
814,931	13,14
815,106	39,76
815,281	45,91
815,456	33,62
815,631	25,43
815,805	-29,87
815,98	-23,72
816,155	21,33
816,33	-11,43
816,505	-7,34
816,68	66,39
816,854	-21,67
817,029	37,72
817,204	-64,68
817,379	0,85
817,553	50
817,728	-31,91
817,903	41,81
818,077	50
818,252	54,1
818,427	99,16
818,601	99,16
818,776	2,9
818,95	-13,48
819,125	80,72
819,299	62,29
819,474	29,52
819,648	50
819,823	70,48
819,997	66,39
820,172	-1,19
820,346	17,24
820,521	17,24
820,695	52,05
820,87	-11,43
821,044	-48,3
821,218	-19,63
821,393	66,39
821,567	-29,87
821,741	-1,19
821,916	-31,91
822,09	39,76
822,264	-46,25
822,438	-13,48
822,613	-5,29
822,787	-58,54
822,961	45,91
823,135	43,86
823,309	-17,58
823,483	-62,63
823,658	136,02
823,832	21,33
824,006	-68,78
824,18	23,38
824,354	133,97
824,528	-48,3
824,702	7
824,876	-31,91
825,05	54,1
825,224	17,24
825,398	50
825,572	0,85
825,746	-72,87
825,92	103,25
826,093	-7,34
826,267	82,77
826,441	4,95
826,615	54,1
826,789	80,72
826,963	50
827,136	25,43
827,31	-70,83
827,484	-60,59
827,658	13,14
827,831	-21,67
828,005	-52,39
828,179	-99,5
828,353	-15,53
828,526	-36,01
828,7	33,62
828,873	-83,11
829,047	-27,82
829,221	-38,06
829,394	0,85
829,568	-1,19
829,741	-72,87
829,915	-15,53
830,088	-3,24
830,262	127,83
830,435	-40,11
830,609	35,67
830,782	-17,58
830,956	13,14
831,129	-27,82
831,302	25,43
831,476	7
831,649	-5,29
831,822	9,05
831,996	33,62
832,169	88,92
832,342	-48,3
832,516	-50,35
832,689	-40,11
832,862	13,14
833,035	25,43
833,209	35,67
833,382	0,85
833,555	11,09
833,728	-17,58
833,901	-91,31
834,074	33,62
834,247	7
834,42	66,39
834,594	-3,24
834,767	58,2
834,94	25,43
835,113	9,05
835,286	-7,34
835,459	50
835,632	17,24
835,805	39,76
835,977	7
836,15	9,05
836,323	37,72
836,496	9,05
836,669	-56,49
836,842	70,48
837,015	74,58
837,188	58,2
837,36	56,15
837,533	33,62
837,706	66,39
837,879	72,53
838,051	-33,96
838,224	4,95
838,397	-19,63
838,569	45,91
838,742	21,33
838,915	25,43
839,087	31,57
839,26	45,91
839,433	-15,53
839,605	74,58
839,778	-38,06
839,95	21,33
840,123	0,85
840,295	13,14
840,468	25,43
840,64	-1,19
840,813	95,06
840,985	-15,53
841,158	66,39
841,33	-5,29
841,502	2,9
841,675	-56,49
841,847	-9,39
842,019	54,1
842,192	-48,3
842,364	33,62
842,536	17,24
842,709	21,33
842,881	41,81
843,053	-79,02
843,225	-13,48
843,398	78,68
843,57	84,82
843,742	7
843,914	66,39
844,086	82,77
844,258	-42,15
844,43	-7,34
844,602	66,39
844,775	-17,58
844,947	68,44
845,119	-19,63
845,291	25,43
845,463	19,29
845,635	-58,54
845,807	9,05
845,979	74,58
846,15	37,72
846,322	25,43
846,494	-7,34
846,666	-50,35
846,838	17,24
847,01	90,96
847,182	70,48
847,354	-19,63
847,525	25,43
847,697	-5,29
847,869	-40,11
848,041	78,68
848,212	58,2
848,384	-25,77
848,556	70,48
848,727	62,29
848,899	-15,53
849,071	-7,34
849,242	-1,19
849,414	17,24
849,585	2,9
849,757	52,05
849,929	15,19
850,1	-48,3
850,272	25,43
850,443	-21,67
850,615	33,62
850,786	-17,58
850,958	-17,58
851,129	37,72
851,3	33,62
851,472	-27,82
851,643	27,48
851,815	50
851,986	11,09
852,157	7
852,329	109,4
852,5	-3,24
852,671	99,16
852,842	-40,11
853,014	41,81
853,185	-33,96
853,356	9,05
853,527	-31,91
853,698	90,96
853,87	4,95
854,041	56,15
854,212	-17,58
854,383	-19,63
854,554	-7,34
854,725	93,01
854,896	-11,43
855,067	56,15
855,238	-19,63
855,409	-62,63
855,58	25,43
855,751	64,34
855,922	66,39
856,093	86,87
856,264	39,76
856,435	-31,91
856,606	-3,24
856,777	41,81
856,948	25,43
857,118	9,05
857,289	13,14
857,46	86,87
857,631	2,9
857,802	45,91
857,972	47,96
858,143	80,72
858,314	0,85
858,484	-52,39
858,655	-29,87
858,826	-9,39
858,996	-7,34
859,167	-7,34
859,338	50
859,508	-58,54
859,679	-58,54
859,849	-111,78
860,02	-31,91
860,19	25,43
860,361	82,77
860,531	-23,72
860,702	86,87
860,872	140,12
861,043	9,05
861,213	66,39
861,384	-46,25
861,554	-1,19
861,724	-89,26
861,895	23,38
862,065	62,29
862,235	9,05
862,406	13,14
862,576	9,05
862,746	60,24
862,916	50
863,087	103,25
863,257	9,05
863,427	-9,39
863,597	35,67
863,767	39,76
863,937	-83,11
864,108	47,96
864,278	2,9
864,448	23,38
864,618	0,85
864,788	-48,3
864,958	37,72
865,128	-36,01
865,298	-17,58
865,468	29,52
865,638	-81,07
865,808	4,95
865,978	19,29
866,148	-23,72
866,318	4,95
866,487	64,34
866,657	17,24
866,827	82,77
866,997	-44,2
867,167	123,73
867,337	13,14
867,506	9,05
867,676	-17,58
867,846	-36,01
868,016	-3,24
868,185	-91,31
868,355	68,44
868,525	-31,91
868,694	-3,24
868,864	144,21
869,034	0,85
869,203	-1,19
869,373	58,2
869,542	88,92
869,712	-52,39
869,881	74,58
870,051	-9,39
870,22	-17,58
870,39	-76,97
870,559	-36,01
870,729	-105,64
870,898	52,05
871,068	29,52
871,237	-23,72
871,406	-1,19
871,576	-19,63
871,745	-9,39
871,914	-64,68
872,084	0,85
872,253	-11,43
872,422	-11,43
872,591	41,81
872,761	29,52
872,93	385,87
873,099	-23,72
873,268	-85,16
873,437	-64,68
873,607	29,52
873,776	-19,63
873,945	-11,43
874,114	-44,2
874,283	-23,72
874,452	-31,91
874,621	17,24
874,79	15,19
874,959	41,81
875,128	17,24
875,297	21,33
875,466	105,3
875,635	56,15
875,804	-58,54
875,973	-52,39
876,142	52,05
876,31	-33,96
876,479	-36,01
876,648	23,38
876,817	-52,39
876,986	-23,72
877,155	-23,72
877,323	-17,58
877,492	25,43
877,661	74,58
877,829	0,85
877,998	-40,11
878,167	15,19
878,335	43,86
878,504	-68,78
878,673	19,29
878,841	-83,11
879,01	17,24
879,178	-3,24
879,347	17,24
879,515	-7,34
879,684	4,95
879,852	-11,43
880,021	-17,58
880,189	-64,68
880,358	13,14
880,526	156,5
880,695	-76,97
880,863	-46,25
881,031	-48,3
881,2	-31,91
881,368	-56,49
881,536	88,92
881,705	52,05
881,873	31,57
882,041	45,91
882,21	23,38
882,378	66,39
882,546	15,19
882,714	39,76
882,882	-17,58
883,05	25,43
883,219	-3,24
883,387	-105,64
883,555	-44,2
883,723	-7,34
883,891	-56,49
884,059	-15,53
884,227	74,58
884,395	0,85
884,563	33,62
884,731	90,96
884,899	74,58
885,067	9,05
885,235	-11,43
885,403	-33,96
885,571	25,43
885,739	-31,91
