Data from USB4F035431__8__14-15-02-111.txt Node

Date: Wed Feb 12 14:15:02 CET 2025
User: Versuch 234
Spectrometer: USB4F03543
Trigger mode: 4
Integration Time (sec): 1,000000E-1
Scans to average: 1
Electric dark correction enabled: true
Nonlinearity correction enabled: false
Boxcar width: 0
XAxis mode: Wavelengths
Number of Pixels in Spectrum: 3648
>>>>>Begin Spectral Data<<<<<
179,969	-162,3
180,181	-162,3
180,394	-162,3
180,606	-170,49
180,819	-156,16
181,031	19,97
181,243	89,6
181,456	-94,72
181,668	52,74
181,88	-35,33
182,093	1,54
182,305	-64
182,518	-16,9
182,73	118,27
182,942	-94,72
183,155	-20,99
183,367	44,54
183,579	32,26
183,791	77,31
184,004	-20,99
184,216	28,16
184,428	3,58
184,641	19,97
184,853	40,45
185,065	60,93
185,277	11,78
185,49	7,68
185,702	-4,61
185,914	17,92
186,126	5,63
186,338	83,45
186,551	36,35
186,763	101,89
186,975	-41,47
187,187	75,26
187,399	42,5
187,612	36,35
187,824	19,97
188,036	3,58
188,248	40,45
188,46	56,83
188,672	69,12
188,885	9,73
189,097	124,41
189,309	42,5
189,521	114,17
189,733	42,5
189,945	28,16
190,157	46,59
190,369	58,88
190,581	32,26
190,794	58,88
191,006	-23,04
191,218	-43,52
191,43	44,54
191,642	-59,9
191,854	-29,18
192,066	44,54
192,278	26,11
192,49	-37,38
192,702	56,83
192,914	99,84
193,126	73,21
193,338	54,78
193,55	28,16
193,762	56,83
193,974	-0,51
194,186	24,06
194,398	-25,09
194,61	69,12
194,822	-2,56
195,034	44,54
195,246	108,03
195,457	-0,51
195,669	44,54
195,881	85,5
196,093	-0,51
196,305	44,54
196,517	-16,9
196,729	69,12
196,941	44,54
197,153	87,55
197,365	87,55
197,576	87,55
197,788	-20,99
198	50,69
198,212	105,98
198,424	110,08
198,636	-8,7
198,847	17,92
199,059	32,26
199,271	22,02
199,483	58,88
199,695	73,21
199,906	67,07
200,118	-20,99
200,33	165,37
200,542	288,25
200,753	-10,75
200,965	-0,51
201,177	36,35
201,389	5,63
201,6	-29,18
201,812	28,16
202,024	42,5
202,235	-23,04
202,447	52,74
202,659	118,27
202,871	15,87
203,082	32,26
203,294	-37,38
203,506	44,54
203,717	11,78
203,929	99,84
204,141	42,5
204,352	26,11
204,564	-31,23
204,775	-29,18
204,987	151,04
205,199	52,74
205,41	30,21
205,622	24,06
205,833	3,58
206,045	36,35
206,257	58,88
206,468	15,87
206,68	24,06
206,891	50,69
207,103	42,5
207,314	3,58
207,526	83,45
207,737	1,54
207,949	-47,62
208,16	-14,85
208,372	-16,9
208,583	-8,7
208,795	26,11
209,006	34,3
209,218	22,02
209,429	-20,99
209,641	-45,57
209,852	93,69
210,064	32,26
210,275	13,82
210,487	44,54
210,698	73,21
210,909	-4,61
211,121	17,92
211,332	34,3
211,544	-0,51
211,755	79,36
211,966	99,84
212,178	-25,09
212,389	108,03
212,6	48,64
212,812	91,65
213,023	44,54
213,234	75,26
213,446	11,78
213,657	11,78
213,868	3,58
214,08	97,79
214,291	103,93
214,502	52,74
214,714	-10,75
214,925	-6,66
215,136	-29,18
215,347	38,4
215,559	-16,9
215,77	26,11
215,981	77,31
216,192	-45,57
216,404	48,64
216,615	60,93
216,826	42,5
217,037	-39,42
217,249	34,3
217,46	110,08
217,671	-33,28
217,882	-12,8
218,093	22,02
218,304	60,93
218,516	32,26
218,727	-29,18
218,938	-20,99
219,149	140,8
219,36	93,69
219,571	36,35
219,782	28,16
219,993	24,06
220,205	-41,47
220,416	79,36
220,627	42,5
220,838	52,74
221,049	163,33
221,26	91,65
221,471	-16,9
221,682	1,54
221,893	52,74
222,104	3,58
222,315	-43,52
222,526	-74,24
222,737	11,78
222,948	-29,18
223,159	24,06
223,37	30,21
223,581	17,92
223,792	-29,18
224,003	71,17
224,214	-45,57
224,425	40,45
224,636	-82,43
224,847	140,8
225,058	30,21
225,269	54,78
225,48	28,16
225,691	-35,33
225,902	69,12
226,112	89,6
226,323	5,63
226,534	110,08
226,745	11,78
226,956	-23,04
227,167	36,35
227,378	26,11
227,589	-20,99
227,799	140,8
228,01	50,69
228,221	17,92
228,432	77,31
228,643	-64
228,853	-12,8
229,064	105,98
229,275	19,97
229,486	11,78
229,697	11,78
229,907	40,45
230,118	15,87
230,329	40,45
230,54	17,92
230,75	108,03
230,961	60,93
231,172	91,65
231,383	26,11
231,593	-10,75
231,804	65,02
232,015	42,5
232,225	97,79
232,436	17,92
232,647	24,06
232,857	34,3
233,068	28,16
233,279	124,41
233,489	48,64
233,7	1,54
233,91	-12,8
234,121	-45,57
234,332	89,6
234,542	-37,38
234,753	-86,53
234,964	52,74
235,174	17,92
235,385	11,78
235,595	83,45
235,806	114,17
236,016	-10,75
236,227	30,21
236,437	26,11
236,648	50,69
236,858	26,11
237,069	-37,38
237,279	60,93
237,49	73,21
237,7	44,54
237,911	54,78
238,121	-70,14
238,332	-55,81
238,542	56,83
238,753	24,06
238,963	22,02
239,174	56,83
239,384	3,58
239,595	-12,8
239,805	-14,85
240,015	52,74
240,226	24,06
240,436	26,11
240,647	15,87
240,857	36,35
241,067	40,45
241,278	120,32
241,488	56,83
241,698	67,07
241,909	30,21
242,119	30,21
242,329	60,93
242,54	65,02
242,75	40,45
242,96	-70,14
243,171	91,65
243,381	83,45
243,591	54,78
243,801	71,17
244,012	79,36
244,222	44,54
244,432	-72,19
244,642	-20,99
244,853	1,54
245,063	-0,51
245,273	36,35
245,483	79,36
245,694	-0,51
245,904	28,16
246,114	89,6
246,324	60,93
246,534	97,79
246,744	7,68
246,955	-29,18
247,165	83,45
247,375	134,65
247,585	19,97
247,795	46,59
248,005	15,87
248,215	105,98
248,425	36,35
248,636	81,41
248,846	58,88
249,056	54,78
249,266	56,83
249,476	52,74
249,686	79,36
249,896	1,54
250,106	36,35
250,316	15,87
250,526	108,03
250,736	48,64
250,946	134,65
251,156	19,97
251,366	28,16
251,576	17,92
251,786	138,75
251,996	36,35
252,206	36,35
252,416	48,64
252,626	28,16
252,836	-8,7
253,046	60,93
253,256	110,08
253,466	52,74
253,676	60,93
253,885	-6,66
254,095	9,73
254,305	58,88
254,515	13,82
254,725	24,06
254,935	22,02
255,145	-6,66
255,355	15,87
255,564	44,54
255,774	13,82
255,984	110,08
256,194	118,27
256,404	11,78
256,614	44,54
256,823	75,26
257,033	52,74
257,243	19,97
257,453	-20,99
257,662	13,82
257,872	28,16
258,082	-20,99
258,292	28,16
258,501	165,37
258,711	155,13
258,921	77,31
259,131	-66,05
259,34	38,4
259,55	32,26
259,76	17,92
259,969	28,16
260,179	-37,38
260,389	67,07
260,598	85,5
260,808	60,93
261,018	-8,7
261,227	69,12
261,437	1,54
261,647	105,98
261,856	5,63
262,066	69,12
262,275	83,45
262,485	-6,66
262,694	114,17
262,904	-25,09
263,114	83,45
263,323	7,68
263,533	5,63
263,742	-6,66
263,952	-18,94
264,161	-29,18
264,371	17,92
264,58	1,54
264,79	-0,51
264,999	77,31
265,209	34,3
265,418	65,02
265,628	60,93
265,837	114,17
266,047	40,45
266,256	42,5
266,466	13,82
266,675	52,74
266,884	9,73
267,094	42,5
267,303	130,56
267,513	93,69
267,722	155,13
267,931	50,69
268,141	77,31
268,35	52,74
268,559	19,97
268,769	32,26
268,978	3,58
269,187	-14,85
269,397	60,93
269,606	-51,71
269,815	-8,7
270,025	3,58
270,234	48,64
270,443	-23,04
270,653	52,74
270,862	28,16
271,071	69,12
271,28	28,16
271,49	9,73
271,699	24,06
271,908	60,93
272,117	60,93
272,327	-4,61
272,536	42,5
272,745	48,64
272,954	-25,09
273,163	44,54
273,372	40,45
273,582	-20,99
273,791	73,21
274	5,63
274,209	40,45
274,418	85,5
274,627	65,02
274,836	13,82
275,046	67,07
275,255	15,87
275,464	-12,8
275,673	67,07
275,882	15,87
276,091	-4,61
276,3	19,97
276,509	130,56
276,718	44,54
276,927	-35,33
277,136	50,69
277,345	3,58
277,554	50,69
277,763	67,07
277,972	36,35
278,181	126,46
278,39	42,5
278,599	11,78
278,808	17,92
279,017	48,64
279,226	75,26
279,435	40,45
279,644	-12,8
279,853	73,21
280,062	93,69
280,271	-4,61
280,48	13,82
280,688	140,8
280,897	93,69
281,106	-41,47
281,315	-20,99
281,524	9,73
281,733	-12,8
281,942	-23,04
282,151	77,31
282,359	159,23
282,568	-82,43
282,777	42,5
282,986	28,16
283,195	79,36
283,403	97,79
283,612	11,78
283,821	9,73
284,03	-29,18
284,238	71,17
284,447	-14,85
284,656	28,16
284,865	122,37
285,073	42,5
285,282	83,45
285,491	-18,94
285,699	-47,62
285,908	60,93
286,117	15,87
286,325	-8,7
286,534	52,74
286,743	110,08
286,951	42,5
287,16	110,08
287,369	48,64
287,577	34,3
287,786	71,17
287,995	17,92
288,203	-49,66
288,412	60,93
288,62	48,64
288,829	-29,18
289,037	67,07
289,246	60,93
289,455	11,78
289,663	36,35
289,872	77,31
290,08	-23,04
290,289	97,79
290,497	-10,75
290,706	56,83
290,914	-39,42
291,123	-41,47
291,331	52,74
291,54	148,99
291,748	93,69
291,957	116,22
292,165	56,83
292,373	60,93
292,582	-10,75
292,79	65,02
292,999	69,12
293,207	124,41
293,415	38,4
293,624	-47,62
293,832	81,41
294,041	7,68
294,249	-14,85
294,457	-12,8
294,666	81,41
294,874	-12,8
295,082	44,54
295,291	69,12
295,499	89,6
295,707	56,83
295,915	38,4
296,124	83,45
296,332	67,07
296,54	99,84
296,749	32,26
296,957	85,5
297,165	44,54
297,373	-61,95
297,581	3,58
297,79	19,97
297,998	38,4
298,206	-14,85
298,414	58,88
298,622	85,5
298,831	122,37
299,039	-47,62
299,247	7,68
299,455	30,21
299,663	112,13
299,871	11,78
300,08	60,93
300,288	69,12
300,496	28,16
300,704	32,26
300,912	30,21
301,12	73,21
301,328	30,21
301,536	19,97
301,744	-31,23
301,952	93,69
302,16	17,92
302,368	52,74
302,576	105,98
302,784	11,78
302,992	-37,38
303,2	7,68
303,408	58,88
303,616	-2,56
303,824	67,07
304,032	65,02
304,24	65,02
304,448	36,35
304,656	-45,57
304,864	124,41
305,072	44,54
305,28	93,69
305,488	19,97
305,696	81,41
305,904	101,89
306,111	-6,66
306,319	58,88
306,527	42,5
306,735	34,3
306,943	93,69
307,151	32,26
307,359	-2,56
307,566	128,51
307,774	108,03
307,982	81,41
308,19	32,26
308,398	5,63
308,605	-4,61
308,813	-12,8
309,021	-12,8
309,229	151,04
309,436	-4,61
309,644	79,36
309,852	28,16
310,06	151,04
310,267	3,58
310,475	36,35
310,683	97,79
310,89	67,07
311,098	62,98
311,306	56,83
311,513	69,12
311,721	34,3
311,929	46,59
312,136	50,69
312,344	-4,61
312,552	81,41
312,759	56,83
312,967	46,59
313,174	1,54
313,382	87,55
313,589	19,97
313,797	52,74
314,005	52,74
314,212	44,54
314,42	28,16
314,627	13,82
314,835	-49,66
315,042	103,93
315,25	-33,28
315,457	28,16
315,665	3,58
315,872	60,93
316,08	52,74
316,287	54,78
316,495	278,01
316,702	28,16
316,909	19,97
317,117	85,5
317,324	71,17
317,532	99,84
317,739	17,92
317,946	-0,51
318,154	-33,28
318,361	7,68
318,569	46,59
318,776	3,58
318,983	36,35
319,191	83,45
319,398	24,06
319,605	36,35
319,813	56,83
320,02	28,16
320,227	65,02
320,434	110,08
320,642	26,11
320,849	77,31
321,056	-10,75
321,264	44,54
321,471	46,59
321,678	30,21
321,885	65,02
322,092	99,84
322,3	89,6
322,507	56,83
322,714	-14,85
322,921	89,6
323,128	19,97
323,336	1,54
323,543	91,65
323,75	101,89
323,957	85,5
324,164	26,11
324,371	60,93
324,578	-41,47
324,786	73,21
324,993	124,41
325,2	3,58
325,407	-23,04
325,614	56,83
325,821	126,46
326,028	228,86
326,235	46,59
326,442	77,31
326,649	28,16
326,856	189,95
327,063	99,84
327,27	19,97
327,477	30,21
327,684	-55,81
327,891	19,97
328,098	69,12
328,305	36,35
328,512	1,54
328,719	69,12
328,926	165,37
329,133	-12,8
329,34	151,04
329,546	101,89
329,753	99,84
329,96	-37,38
330,167	93,69
330,374	17,92
330,581	56,83
330,788	-31,23
330,995	7,68
331,201	67,07
331,408	99,84
331,615	44,54
331,822	50,69
332,029	-4,61
332,235	48,64
332,442	44,54
332,649	85,5
332,856	-23,04
333,062	44,54
333,269	-4,61
333,476	28,16
333,683	36,35
333,889	48,64
334,096	77,31
334,303	93,69
334,509	-4,61
334,716	32,26
334,923	-10,75
335,129	46,59
335,336	93,69
335,543	52,74
335,749	32,26
335,956	146,94
336,163	9,73
336,369	126,46
336,576	77,31
336,782	50,69
336,989	-0,51
337,196	-4,61
337,402	54,78
337,609	-47,62
337,815	69,12
338,022	103,93
338,228	105,98
338,435	159,23
338,641	95,74
338,848	89,6
339,054	130,56
339,261	11,78
339,467	-6,66
339,674	81,41
339,88	40,45
340,087	-6,66
340,293	65,02
340,5	32,26
340,706	81,41
340,912	11,78
341,119	58,88
341,325	15,87
341,532	15,87
341,738	120,32
341,944	42,5
342,151	110,08
342,357	7,68
342,563	28,16
342,77	15,87
342,976	50,69
343,182	140,8
343,389	60,93
343,595	-31,23
343,801	-20,99
344,007	67,07
344,214	-20,99
344,42	50,69
344,626	32,26
344,832	28,16
345,039	83,45
345,245	89,6
345,451	52,74
345,657	69,12
345,864	71,17
346,07	65,02
346,276	118,27
346,482	136,7
346,688	87,55
346,894	-33,28
347,1	101,89
347,307	-12,8
347,513	161,28
347,719	44,54
347,925	134,65
348,131	44,54
348,337	122,37
348,543	44,54
348,749	24,06
348,955	81,41
349,161	34,3
349,367	30,21
349,573	105,98
349,779	79,36
349,985	3,58
350,191	65,02
350,397	69,12
350,603	26,11
350,809	-4,61
351,015	7,68
351,221	97,79
351,427	124,41
351,633	83,45
351,839	110,08
352,045	114,17
352,251	101,89
352,457	99,84
352,663	9,73
352,869	-10,75
353,075	34,3
353,28	36,35
353,486	-10,75
353,692	52,74
353,898	-12,8
354,104	26,11
354,31	69,12
354,515	15,87
354,721	60,93
354,927	65,02
355,133	142,85
355,339	114,17
355,544	56,83
355,75	58,88
355,956	114,17
356,162	34,3
356,367	77,31
356,573	89,6
356,779	26,11
356,984	67,07
357,19	105,98
357,396	44,54
357,602	103,93
357,807	77,31
358,013	93,69
358,218	48,64
358,424	36,35
358,63	114,17
358,835	34,3
359,041	32,26
359,247	19,97
359,452	112,13
359,658	-12,8
359,863	60,93
360,069	103,93
360,274	48,64
360,48	65,02
360,685	62,98
360,891	124,41
361,097	83,45
361,302	101,89
361,508	81,41
361,713	60,93
361,918	124,41
362,124	69,12
362,329	85,5
362,535	87,55
362,74	36,35
362,946	105,98
363,151	9,73
363,357	50,69
363,562	48,64
363,767	87,55
363,973	69,12
364,178	19,97
364,383	40,45
364,589	124,41
364,794	42,5
365	108,03
365,205	122,37
365,41	85,5
365,615	65,02
365,821	50,69
366,026	48,64
366,231	62,98
366,437	114,17
366,642	54,78
366,847	101,89
367,052	89,6
367,258	-18,94
367,463	-2,56
367,668	44,54
367,873	67,07
368,078	181,76
368,284	-111,1
368,489	19,97
368,694	103,93
368,899	73,21
369,104	91,65
369,309	87,55
369,515	22,02
369,72	85,5
369,925	83,45
370,13	124,41
370,335	116,22
370,54	112,13
370,745	122,37
370,95	99,84
371,155	155,13
371,36	101,89
371,565	101,89
371,77	91,65
371,975	126,46
372,18	148,99
372,385	87,55
372,59	124,41
372,795	52,74
373	118,27
373,205	134,65
373,41	60,93
373,615	73,21
373,82	87,55
374,025	83,45
374,23	56,83
374,435	75,26
374,64	77,31
374,845	116,22
375,05	69,12
375,254	128,51
375,459	85,5
375,664	11,78
375,869	118,27
376,074	93,69
376,279	34,3
376,483	19,97
376,688	1,54
376,893	105,98
377,098	69,12
377,303	50,69
377,507	124,41
377,712	179,71
377,917	105,98
378,122	105,98
378,326	67,07
378,531	65,02
378,736	132,61
378,94	13,82
379,145	140,8
379,35	142,85
379,554	118,27
379,759	101,89
379,964	114,17
380,168	60,93
380,373	187,9
380,578	136,7
380,782	114,17
380,987	87,55
381,191	17,92
381,396	146,94
381,601	89,6
381,805	112,13
382,01	261,63
382,214	165,37
382,419	69,12
382,623	42,5
382,828	52,74
383,032	-16,9
383,237	34,3
383,441	44,54
383,646	97,79
383,85	52,74
384,055	52,74
384,259	85,5
384,464	15,87
384,668	91,65
384,872	67,07
385,077	46,59
385,281	97,79
385,486	73,21
385,69	110,08
385,894	144,89
386,099	128,51
386,303	110,08
386,507	148,99
386,712	151,04
386,916	58,88
387,12	116,22
387,325	165,37
387,529	167,42
387,733	71,17
387,937	114,17
388,142	103,93
388,346	36,35
388,55	151,04
388,754	85,5
388,959	167,42
389,163	91,65
389,367	81,41
389,571	97,79
389,775	134,65
389,98	126,46
390,184	140,8
390,388	58,88
390,592	134,65
390,796	222,72
391	110,08
391,204	83,45
391,409	85,5
391,613	42,5
391,817	44,54
392,021	126,46
392,225	91,65
392,429	52,74
392,633	50,69
392,837	77,31
393,041	110,08
393,245	183,81
393,449	85,5
393,653	114,17
393,857	148,99
394,061	159,23
394,265	126,46
394,469	198,14
394,673	173,57
394,877	155,13
395,081	144,89
395,285	208,38
395,489	126,46
395,693	247,29
395,896	161,28
396,1	187,9
396,304	192
396,508	105,98
396,712	140,8
396,916	132,61
397,12	163,33
397,323	226,81
397,527	196,09
397,731	237,05
397,935	116,22
398,139	239,1
398,342	255,48
398,546	181,76
398,75	175,61
398,954	243,2
399,157	224,76
399,361	241,15
399,565	204,28
399,769	316,92
399,972	230,91
400,176	239,1
400,38	278,01
400,583	224,76
400,787	327,16
400,991	261,63
401,194	241,15
401,398	347,64
401,601	167,42
401,805	310,78
402,009	263,68
402,212	280,06
402,416	421,37
402,619	167,42
402,823	353,79
403,026	306,68
403,23	323,07
403,433	361,98
403,637	323,07
403,841	314,88
404,044	314,88
404,247	261,63
404,451	294,4
404,654	292,35
404,858	339,45
405,061	396,79
405,265	343,55
405,468	347,64
405,672	331,26
405,875	435,71
406,078	372,22
406,282	331,26
406,485	296,44
406,689	378,36
406,892	441,85
407,095	329,21
407,299	333,31
407,502	470,52
407,705	339,45
407,909	437,75
408,112	454,14
408,315	417,27
408,518	478,71
408,722	382,46
408,925	361,98
409,128	480,76
409,331	460,28
409,535	513,53
409,738	450,04
409,941	640,5
410,144	454,14
410,347	568,82
410,551	562,68
410,754	503,29
410,957	568,82
411,16	534,01
411,363	574,97
411,566	650,74
411,769	574,97
411,973	636,41
412,176	656,89
412,379	691,7
412,582	654,84
412,785	648,69
412,988	660,98
413,191	622,07
413,394	634,36
413,597	634,36
413,8	681,46
414,003	730,61
414,206	593,4
414,409	720,37
414,612	763,38
414,815	681,46
415,018	755,19
415,221	708,09
415,424	814,58
415,627	841,2
415,83	863,73
416,033	833,01
416,235	951,79
416,438	968,18
416,641	953,84
416,844	863,73
417,047	873,97
417,25	880,11
417,453	978,42
417,655	1064,43
417,858	1097,2
418,061	1043,95
418,264	1140,21
418,467	1138,16
418,669	1234,41
418,872	1269,23
419,075	1168,88
419,278	1220,08
419,48	1478,12
419,683	1328,62
419,886	1297,9
420,089	1482,22
420,291	1545,7
420,494	1506,79
420,697	1531,37
420,899	1574,38
421,102	1619,43
421,305	1623,53
421,507	1646,05
421,71	1699,3
421,912	1926,63
422,115	1863,14
422,318	1943,01
422,52	2031,07
422,723	2104,8
422,925	2246,11
423,128	2272,73
423,33	2211,29
423,533	2203,1
423,735	2465,24
423,938	2508,25
424,14	2489,82
424,343	2647,51
424,545	2780,63
424,748	2645,46
424,95	2788,82
425,153	3065,3
425,355	3032,53
425,558	3300,81
425,76	3247,57
425,962	3253,71
426,165	3229,13
426,367	3671,5
426,57	3927,49
426,772	3655,11
426,974	3941,83
427,177	3802,57
427,379	4148,67
427,581	4130,24
427,784	4416,96
427,986	4187,58
428,188	4701,62
428,39	4779,45
428,593	4820,41
428,795	5365,17
428,997	5225,9
429,2	5174,71
429,402	5625,26
429,604	5660,07
429,806	5676,46
430,008	5909,93
430,211	6026,66
430,413	6378,91
430,615	6417,82
430,817	6815,13
431,019	6974,87
431,221	7234,96
431,423	7024,02
431,626	7564,68
431,828	7593,36
432,03	7857,54
432,232	7998,85
432,434	8486,27
432,636	8666,49
432,838	8646,01
433,04	8994,17
433,242	9217,4
433,444	9190,77
433,646	9653,61
433,848	10198,37
434,05	10356,07
434,252	10370,4
434,454	10491,23
434,656	11183,45
434,858	11486,54
435,06	11775,31
435,262	11687,25
435,464	12514,63
435,666	12944,7
435,868	12578,11
436,07	13528,37
436,271	14257,45
436,473	14044,46
436,675	14015,79
436,877	14533,92
437,079	14038,31
437,281	15060,25
437,482	15596,82
437,684	16385,29
437,886	15895,82
438,088	16340,23
438,29	16483,59
438,491	17183,99
438,693	17247,48
438,895	18347,24
439,097	19920,08
439,298	19012,83
439,5	19393,75
439,702	20098,25
439,903	19729,62
440,105	21009,6
440,307	22047,92
440,508	22035,63
440,71	23008,42
440,912	22873,25
441,113	22764,71
441,315	23682,2
441,517	24874,12
441,718	25889,91
441,92	26131,57
442,121	25494,65
442,323	26924,13
442,524	28165,2
442,726	29195,33
442,928	29324,35
443,129	30323,76
443,331	28863,56
443,532	30112,82
443,734	31296,55
443,935	32828,43
444,136	30655,53
444,338	33315,84
444,539	33272,84
444,741	34419,7
444,942	34280,44
445,144	35578,85
445,345	36852,69
445,546	37637,06
445,748	36672,46
445,949	37059,53
446,151	38409,14
446,352	39027,63
446,553	39492,52
446,755	39170,99
446,956	42965,87
447,157	42810,23
447,359	43070,32
447,56	43770,72
447,761	43469,67
447,962	45699,91
448,164	45937,48
448,365	43615,08
448,566	46060,35
448,767	45726,53
448,969	47430,44
449,17	47162,16
449,371	46914,36
449,572	48085,79
449,773	49124,11
449,974	49462,03
450,176	49916,68
450,377	51106,55
450,578	50936,57
450,779	48804,63
450,98	47336,24
451,181	49105,68
451,382	49251,09
451,583	50619,13
451,784	50148,1
451,986	54694,59
452,187	50930,42
452,388	51137,27
452,589	48282,4
452,79	52425,44
452,991	49066,77
453,192	50975,48
453,393	49564,43
453,594	52490,98
453,795	48970,52
453,995	48671,51
454,196	48896,79
454,397	49869,58
454,598	49279,76
454,799	49550,09
455	49566,48
455,201	49339,15
455,402	47805,22
455,603	46299,97
455,804	48710,42
456,004	49285,9
456,205	45964,1
456,406	44221,28
456,607	44688,21
456,808	44843,86
457,008	43144,05
457,209	41827,2
457,41	44585,82
457,611	41704,32
457,811	42279,8
458,012	42316,67
458,213	42677,11
458,414	40450,97
458,614	39691,17
458,815	39746,47
459,016	39289,77
459,216	39943,07
459,417	38919,09
459,618	38122,43
459,818	37749,7
460,019	35886,04
460,22	35701,73
460,42	36287,45
460,621	34184,18
460,821	35261,41
461,022	33999,87
461,223	32629,77
461,423	33760,25
461,624	33276,93
461,824	32924,68
462,025	31276,07
462,225	32379,92
462,426	32001,05
462,626	30460,98
462,827	30028,85
463,027	29332,54
463,228	29666,36
463,428	28458,06
463,628	29520,96
463,829	30168,12
464,029	27944,02
464,23	28726,35
464,43	27212,9
464,63	27098,21
464,831	27282,53
465,031	27042,92
465,231	27542,62
465,432	27327,58
465,632	26051,7
465,832	25037,95
466,033	26494,06
466,233	25265,28
466,433	24831,11
466,634	25963,64
466,834	25367,68
467,034	24362,12
467,234	25896,05
467,435	24415,37
467,635	24865,92
467,835	22504,62
468,035	23698,58
468,235	22719,65
468,436	22615,21
468,636	22875,3
468,836	21664,95
469,036	22512,81
469,236	21210,3
469,436	21462,2
469,636	21505,21
469,836	20831,43
470,037	21114,05
470,237	20487,37
470,437	20616,39
470,637	20083,92
470,837	20057,29
471,037	20479,18
471,237	20573,38
471,437	20034,77
471,637	19760,34
471,837	19967,18
472,037	19514,58
472,237	19283,16
472,437	19938,51
472,637	19944,66
472,837	19375,32
473,036	18762,98
473,236	19281,11
473,436	18691,3
473,636	19135,71
473,836	18279,66
474,036	18930,91
474,236	18613,48
474,436	18619,62
474,635	18253,03
474,835	18195,69
475,035	18599,14
475,235	18844,9
475,435	18439,4
475,634	18007,28
475,834	18756,83
476,034	18334,95
476,234	18064,62
476,433	18070,76
476,633	17558,77
476,833	17485,05
477,033	17435,89
477,232	17384,69
477,432	16737,54
477,632	16930,05
477,831	16661,76
478,031	16422,15
478,231	16801,02
478,43	16588,03
478,63	16379,14
478,829	16286,98
479,029	16368,9
479,229	16301,32
479,428	16125,19
479,628	16373
479,827	16194,82
480,027	15869,2
480,226	15512,85
480,426	15875,34
480,625	15420,69
480,825	16084,23
481,024	15721,74
481,224	15901,97
481,423	15631,63
481,623	15500,56
481,822	15639,83
482,021	15453,46
482,221	15535,38
482,42	15324,44
482,62	15277,33
482,819	15043,87
483,018	15183,13
483,218	14968,09
483,417	15293,72
483,616	15080,73
483,816	14845,21
484,015	14581,03
484,214	15002,91
484,414	15066,39
484,613	14785,82
484,812	14642,46
485,011	14863,65
485,211	14376,23
485,41	14667,04
485,609	14605,6
485,808	14214,44
486,008	14517,54
486,207	14370,08
486,406	14355,75
486,605	14206,25
486,804	14097,7
487,003	14318,89
487,203	14492,96
487,402	14304,55
487,601	14378,28
487,8	14011,69
487,999	14138,66
488,198	14118,18
488,397	14585,12
488,596	14310,69
488,795	14134,57
488,994	14306,6
489,193	14226,73
489,392	14241,06
489,591	14220,58
489,79	14132,52
489,989	14265,64
490,188	14243,11
490,387	14224,68
490,586	13708,59
490,785	14116,14
490,984	14048,55
491,183	14159,14
491,382	13972,78
491,581	14118,18
491,779	14357,8
491,978	14267,69
492,177	14183,72
492,376	14220,58
492,575	14406,95
492,774	14212,39
492,972	14529,83
493,171	14286,12
493,37	14271,78
493,569	14370,08
493,768	14628,13
493,966	14523,68
494,165	14642,46
494,364	14904,6
494,563	14644,51
494,761	15088,92
494,96	14810,4
495,159	15385,88
495,357	14871,84
495,556	14871,84
495,755	14765,34
495,953	15109,4
496,152	15148,31
496,35	15189,27
496,549	15248,66
496,748	15265,05
496,946	15400,21
497,145	15428,88
497,343	15357,21
497,542	15504,66
497,74	15713,55
497,939	15803,66
498,137	16137,48
498,336	16125,19
498,534	16006,41
498,733	16219,4
498,931	16243,98
499,13	16397,57
499,328	16317,7
499,527	16846,08
499,725	16508,16
499,924	16665,86
500,122	16741,63
500,32	16915,71
500,519	16975,1
500,717	17005,82
500,915	17222,91
501,114	17485,05
501,312	17444,09
501,51	17620,21
501,709	17687,79
501,907	18140,4
502,105	18044,14
502,304	18328,81
502,502	18038
502,7	18349,29
502,898	18212,07
503,097	18398,44
503,295	18762,98
503,493	18752,74
503,691	19045,6
503,889	19158,24
504,088	19090,65
504,286	19836,11
504,484	19643,6
504,682	19965,14
504,88	19971,28
505,078	20415,69
505,276	20518,09
505,474	21126,33
505,672	20399,3
505,871	20903,11
506,069	20878,53
506,267	21122,24
506,465	21191,87
506,663	21374,14
506,861	21185,72
507,059	21472,44
507,257	21695,67
507,455	21959,86
507,653	22133,93
507,851	22662,31
508,049	22666,41
508,246	23336,09
508,444	23262,37
508,642	23579,8
508,84	23424,15
509,038	23813,27
509,236	24038,55
509,434	23690,39
509,632	24241,29
509,829	24781,96
510,027	24304,78
510,225	24693,9
510,423	24784,01
510,621	25101,44
510,818	25500,79
511,016	25992,31
511,214	25957,49
511,412	26254,45
511,609	26164,34
511,807	26510,44
512,005	26434,67
512,203	26899,56
512,4	27057,25
512,598	27546,72
512,796	27456,61
512,993	27855,96
513,191	27972,69
513,389	28079,19
513,586	28832,84
513,784	28750,92
513,981	28918,85
514,179	29789,24
514,377	29971,51
514,574	30276,66
514,772	30479,41
514,969	30946,34
515,167	30862,38
515,364	31362,08
515,562	30913,58
515,759	31605,79
515,957	31089,7
516,154	31425,57
516,352	31386,66
516,549	31626,27
516,746	31826,97
516,944	32326,67
517,141	32736,27
517,339	32859,15
517,536	33199,11
517,733	32918,54
517,931	33977,34
518,128	34202,61
518,325	34208,76
518,523	34505,71
518,72	34655,22
518,917	35632,1
519,115	35396,58
519,312	35738,59
519,509	35609,57
519,707	36142,04
519,904	35898,33
520,101	36305,88
520,298	36328,41
520,495	37163,98
520,693	37069,77
520,89	37567,43
521,087	37440,45
521,284	38966,19
521,481	38675,38
521,678	39367,59
521,876	39179,18
522,073	39418,79
522,27	39472,04
522,467	39439,27
522,664	39539,62
522,861	40201,11
523,058	39967,65
523,255	39891,87
523,452	40002,46
523,649	40174,49
523,846	40315,8
524,043	40928,14
524,24	41071,5
524,437	40784,79
524,634	41689,99
524,831	41853,83
525,028	41577,35
525,225	42130,3
525,422	41945,98
525,619	42554,23
525,816	42193,79
526,013	43260,78
526,209	42718,07
526,406	42574,71
526,603	42804,08
526,8	43189,1
526,997	43248,49
527,194	43760,48
527,39	43266,92
527,587	43922,27
527,784	44282,72
527,981	44331,87
528,177	44475,23
528,374	44770,13
528,571	44430,17
528,768	45263,69
528,964	45228,88
529,161	44995,41
529,358	45806,41
529,554	44700,5
529,751	45044,56
529,948	44915,54
530,144	44583,77
530,341	45173,58
530,537	46117,7
530,734	46713,66
530,931	45921,09
531,127	46527,29
531,324	46652,22
531,52	47260,46
531,717	47035,19
531,913	46951,22
532,11	46873,4
532,306	47246,13
532,503	47297,33
532,699	47080,24
532,896	47297,33
533,092	47258,41
533,289	47563,56
533,485	48032,55
533,682	47928,1
533,878	47682,34
534,074	47774,5
534,271	48282,4
534,467	47504,17
534,664	47653,67
534,86	47987,49
535,056	48067,36
535,253	48212,77
535,449	48460,57
535,645	47719,21
535,841	48610,07
536,038	48294,69
536,234	48184,1
536,43	48724,76
536,626	49101,59
536,823	48282,4
537,019	48605,98
537,215	48513,82
537,411	49019,67
537,607	48722,71
537,804	49265,42
538	49091,35
538,196	49304,34
538,392	49472,27
538,588	49570,57
538,784	49783,56
538,98	49953,54
539,176	49601,29
539,373	50488,06
539,569	49900,29
539,765	49924,87
539,961	50492,16
540,157	49689,35
540,353	49648,39
540,549	50592,51
540,745	49845
540,941	49992,45
541,137	49568,52
541,333	49787,66
541,528	50502,4
541,724	49976,07
541,92	50094,85
542,116	49427,21
542,312	50055,94
542,508	50187,01
542,704	50084,61
542,9	50012,93
543,096	49779,46
543,291	50090,76
543,487	49560,33
543,683	49992,45
543,879	49738,51
544,075	49885,96
544,27	50815,74
544,466	51188,47
544,662	50553,6
544,858	51239,67
545,053	50891,51
545,249	50805,5
545,445	50438,91
545,64	50778,87
545,836	50076,42
546,032	50449,15
546,227	51098,36
546,423	50688,76
546,619	50393,86
546,814	50770,68
547,01	50340,61
547,205	49986,31
547,401	49742,6
547,597	50844,41
547,792	50148,1
547,988	50473,73
548,183	50627,32
548,379	51024,63
548,574	50830,07
548,77	51176,18
548,965	50873,08
549,161	51045,11
549,356	50371,33
549,552	50856,7
549,747	50373,38
549,942	50033,41
550,138	50688,76
550,333	49681,16
550,529	50363,14
550,724	50608,89
550,919	50430,72
551,115	50948,85
551,31	50668,28
551,505	50828,02
551,701	50373,38
551,896	51063,54
552,091	50637,56
552,287	50397,95
552,482	49906,44
552,677	49994,5
552,872	50217,73
553,067	50328,32
553,263	49988,36
553,458	50318,08
553,653	49836,81
553,848	49912,58
554,043	49404,69
554,239	49574,67
554,434	49308,43
554,629	49828,62
554,824	49627,91
555,019	49451,79
555,214	49986,31
555,409	49799,94
555,604	50012,93
555,799	49793,8
555,994	50180,87
556,189	50289,41
556,384	50230,02
556,579	49865,48
556,774	50012,93
556,969	49607,44
557,164	49046,29
557,359	48816,92
557,554	48630,55
557,749	48911,13
557,944	48366,37
558,139	48859,93
558,334	49263,38
558,529	49019,67
558,724	48919,32
558,918	49730,31
559,113	49298,19
559,308	49898,25
559,503	49558,28
559,698	49650,44
559,893	49279,76
560,087	49457,93
560,282	48812,82
560,477	48515,87
560,672	48325,41
560,866	47919,91
561,061	47858,47
561,256	48601,88
561,45	48360,22
561,645	48831,25
561,84	48646,94
562,034	48853,78
562,229	48407,33
562,424	48735
562,618	49062,68
562,813	48808,73
563,008	48577,31
563,202	49320,72
563,397	49183,51
563,591	49232,66
563,786	48845,59
563,98	48898,84
564,175	48007,97
564,369	47516,46
564,564	47600,43
564,758	47756,07
564,953	47262,51
565,147	47821,61
565,342	47883,05
565,536	47983,4
565,731	47608,62
565,925	47893,29
566,119	47414,06
566,314	47676,2
566,508	47176,5
566,703	47960,87
566,897	47936,29
567,091	47944,48
567,286	47229,74
567,48	47438,64
567,674	47096,63
567,868	47481,64
568,063	46721,85
568,257	47481,64
568,451	47149,87
568,646	47166,26
568,84	46953,27
569,034	46613,3
569,228	47174,45
569,422	47188,78
569,616	47424,3
569,811	47637,29
570,005	47330,09
570,199	47883,05
570,393	47412,01
570,587	47739,69
570,781	46955,32
570,975	47313,71
571,169	47272,75
571,364	46949,17
571,558	46764,85
571,752	47289,13
571,946	46750,52
572,14	47137,58
572,334	46592,83
572,528	46281,53
572,722	46422,84
572,916	46003,01
573,109	46566,2
573,303	46451,52
573,497	46793,53
573,691	46617,4
573,885	46412,6
574,079	47665,96
574,273	46539,58
574,467	46674,74
574,661	46617,4
574,854	46936,88
575,048	46750,52
575,242	45855,56
575,436	46166,85
575,63	45939,52
575,823	45585,22
576,017	45474,63
576,211	45071,18
576,405	45951,81
576,598	45296,46
576,792	45824,84
576,986	45462,35
577,18	45290,32
577,373	46015,3
577,567	46428,99
577,761	46078,78
577,954	45878,08
578,148	45982,53
578,341	46068,55
578,535	45609,8
578,729	45757,25
578,922	45302,6
579,116	45601,61
579,309	45024,08
579,503	45261,65
579,696	45013,84
579,89	45370,19
580,083	44878,68
580,277	45431,63
580,47	44952,4
580,664	45019,99
580,857	44688,21
581,051	44866,39
581,244	44680,02
581,437	45341,52
581,631	45554,5
581,824	45581,13
582,018	45431,63
582,211	45767,49
582,404	45519,69
582,598	45290,32
582,791	45060,94
582,984	44462,94
583,178	43946,85
583,371	44548,95
583,564	44487,51
583,757	44043,1
583,951	43729,76
584,144	43567,98
584,337	43692,9
584,53	44385,11
584,723	43606,89
584,917	44553,05
585,11	43748,2
585,303	44792,66
585,496	43594,6
585,689	44317,53
585,882	44098,4
586,075	44288,86
586,268	44069,73
586,462	44327,77
586,655	43676,52
586,848	44266,33
587,041	44055,39
587,234	44176,22
587,427	44176,22
587,62	44628,82
587,813	44536,66
588,006	44475,23
588,199	44208,99
588,392	44409,69
588,585	44082,02
588,777	44258,14
588,97	43287,4
589,163	43516,78
589,356	43117,42
589,549	43006,83
589,742	42623,86
589,935	42287,99
590,128	42681,2
590,32	42326,91
590,513	42173,31
590,706	42466,17
590,899	42099,58
591,092	42947,44
591,284	42662,77
591,477	42886
591,67	42511,22
591,863	42097,53
592,055	42021,76
592,248	41767,81
592,441	41393,03
592,633	41616,26
592,826	40823,7
593,019	41401,22
593,211	40813,46
593,404	41290,63
593,596	41730,95
593,789	41116,56
593,982	41042,83
594,174	41171,85
594,367	41036,69
594,559	41390,98
594,752	40209,31
594,944	39998,37
595,137	40598,42
595,329	40737,68
595,522	40135,58
595,714	40369,05
595,907	39973,79
596,099	39074,73
596,292	39486,37
596,484	39637,92
596,676	39283,62
596,869	39392,17
597,061	39560,1
597,253	39746,47
597,446	39152,55
597,638	39369,64
597,83	38865,84
598,023	39050,16
598,215	38882,22
598,407	38593,46
598,6	38347,7
598,792	38720,43
598,984	38411,19
599,176	38110,14
599,369	38190,01
599,561	38124,47
599,753	37680,07
599,945	37751,74
600,137	37856,19
600,329	37837,76
600,522	37401,54
600,714	38147
600,906	38009,79
601,098	37987,26
601,29	38183,87
601,482	37784,51
601,674	37264,33
601,866	37540,8
602,058	37270,47
602,25	37213,13
602,442	37254,09
602,634	37200,84
602,826	36840,4
603,018	36578,26
603,21	36484,05
603,402	36443,09
603,594	36494,29
603,786	36977,61
603,978	36461,52
604,17	36305,88
604,362	36213,72
604,554	35658,72
604,745	35550,18
604,937	35976,16
605,129	35484,64
605,321	35128,3
605,513	35492,83
605,704	35230,69
605,896	34718,7
606,088	35013,61
606,28	34640,88
606,471	35187,69
606,663	34898,92
606,855	34968,55
607,047	34780,14
607,238	34741,23
607,43	33825,79
607,622	34452,47
607,813	34171,89
608,005	33723,39
608,197	34094,07
608,388	33936,38
608,58	33518,59
608,771	33418,24
608,963	33088,52
609,154	33332,23
609,346	32799,76
609,537	33340,42
609,729	32998,41
609,921	33190,92
610,112	32603,15
610,303	32527,38
610,495	32117,78
610,686	32441,36
610,878	32283,67
611,069	31757,34
611,261	31910,94
611,452	31509,54
611,643	31495,2
611,835	31046,69
612,026	30692,4
612,217	30622,76
612,409	30925,86
612,6	30721,07
612,791	30329,91
612,983	30549,04
613,174	30594,09
613,365	30499,89
613,557	30125,11
613,748	30243,89
613,939	29869,11
614,13	29576,25
614,321	29418,56
614,513	29731,9
614,704	29322,3
614,895	29619,26
615,086	29477,95
615,277	29865,02
615,468	29619,26
615,659	29920,31
615,851	29242,43
616,042	29426,75
616,233	29459,52
616,424	28992,58
616,615	28896,33
616,806	28736,59
616,997	28646,47
617,188	28525,64
617,379	28892,23
617,57	28646,47
617,761	28523,6
617,952	28738,63
618,143	28546,12
618,334	28791,88
618,524	28683,34
618,715	28509,26
618,906	28736,59
619,097	28552,27
619,288	28527,69
619,479	28685,39
619,67	28439,63
619,86	28361,81
620,051	28410,96
620,242	28902,47
620,433	28552,27
620,624	28640,33
620,814	28705,87
621,005	28341,33
621,196	27997,27
621,386	28169,3
621,577	28281,94
621,768	28314,7
621,958	28202,07
622,149	28281,94
622,34	28214,35
622,53	28126,29
622,721	27810,9
622,912	28499,02
623,102	28468,3
623,293	28585,04
623,483	28447,82
623,674	28480,59
623,864	28415,05
624,055	28279,89
624,245	28167,25
624,436	27847,77
624,626	28021,84
624,817	28075,09
625,007	27794,52
625,198	27907,16
625,388	27606,11
625,579	27559
625,769	27573,34
625,959	27788,38
626,15	27495,52
626,34	27159,65
626,531	27843,67
626,721	28046,42
626,911	27708,51
627,101	27821,14
627,292	27667,55
627,482	27761,75
627,672	27962,45
627,863	27690,07
628,053	27491,42
628,243	27610,2
628,433	27323,49
628,623	27503,71
628,814	27016,29
629,004	27311,2
629,194	26623,08
629,384	26754,15
629,574	26840,17
629,764	26805,35
629,955	26453,1
630,145	26549,35
630,335	26582,12
630,525	26109,04
630,715	26053,75
630,905	26053,75
631,095	26086,51
631,285	26315,89
631,475	26184,82
631,665	26610,79
631,855	25994,36
632,045	26297,45
632,235	25889,91
632,425	25681,02
632,615	25511,03
632,805	25734,26
632,994	24974,47
633,184	25566,33
633,374	24939,65
633,564	25080,96
633,754	24788,1
633,944	24654,98
634,133	24640,65
634,323	25089,15
634,513	24982,66
634,703	24747,14
634,893	24511,63
635,082	24474,76
635,272	24263,82
635,462	24337,55
635,651	24120,46
635,841	24374,41
636,031	24085,65
636,221	24042,64
636,41	24106,13
636,6	24048,79
636,789	23950,48
636,979	23608,47
637,169	23377,05
637,358	23540,89
637,548	23397,53
637,737	23061,66
637,927	23305,37
638,116	23186,59
638,306	23063,71
638,495	23098,53
638,685	22856,87
638,874	22512,81
639,064	22445,23
639,253	22469,8
639,443	22004,91
639,632	22047,92
639,822	21640,37
640,011	21849,27
640,2	21906,61
640,39	21781,68
640,579	22060,21
640,768	22064,3
640,958	21732,53
641,147	21834,93
641,336	21765,3
641,526	21296,32
641,715	21296,32
641,904	21247,16
642,093	20827,33
642,283	21079,23
642,472	20669,64
642,661	20516,04
642,85	20866,24
643,039	20604,1
643,228	20530,37
643,418	20516,04
643,607	20587,72
643,796	20376,78
643,985	19950,8
644,174	19889,36
644,363	20415,69
644,552	19754,19
644,741	19942,61
644,93	19893,46
645,119	19307,74
645,308	19627,22
645,497	19516,63
645,686	19250,39
645,875	19561,69
646,064	19184,86
646,253	19004,64
646,442	19494,1
646,631	18992,35
646,82	19045,6
647,009	19141,85
647,198	18658,53
647,387	19082,46
647,575	18693,35
647,764	19354,84
647,953	18853,09
648,142	18685,15
648,331	18844,9
648,519	18427,11
648,708	18445,54
648,897	18038
649,086	18332,9
649,274	18085,1
649,463	17976,56
649,652	17878,26
649,84	17804,53
650,029	17753,33
650,218	17616,12
650,406	17657,07
650,595	17409,27
650,784	17577,2
650,972	17452,28
651,161	17192,19
651,349	17290,49
651,538	16936,19
651,726	16798,98
651,915	16786,69
652,104	16522,5
652,292	16463,11
652,481	16416,01
652,669	16651,52
652,857	16864,51
653,046	16366,85
653,234	16471,3
653,423	16354,57
653,611	16354,57
653,8	16012,56
653,988	16243,98
654,176	16037,13
654,365	15996,17
654,553	15951,12
654,741	15658,26
654,93	15330,58
655,118	15336,73
655,306	15285,53
655,494	15402,26
655,683	15088,92
655,871	15334,68
656,059	15330,58
656,247	15285,53
656,436	15203,61
656,624	15252,76
656,812	14978,33
657	14947,61
657,188	14906,65
657,376	14677,28
657,564	14505,25
657,753	14640,42
657,941	14335,27
658,129	14587,17
658,317	14282,02
658,505	14105,9
658,693	14148,9
658,881	14290,21
659,069	13892,91
659,257	13958,44
659,445	14109,99
659,633	14132,52
659,821	13919,53
660,009	13829,42
660,197	13663,54
660,384	13925,68
660,572	13765,93
660,76	13694,26
660,948	13348,15
661,136	13739,31
661,324	13557,04
661,512	13851,95
661,699	13452,59
661,887	13382,96
662,075	13073,72
662,263	13051,19
662,451	13118,78
662,638	12885,31
662,826	12940,6
663,014	13067,58
663,201	12717,37
663,389	12787
663,577	12748,09
663,764	12799,29
663,952	12721,47
664,14	12805,44
664,327	12551,49
664,515	12449,09
664,702	12389,7
664,89	12287,3
665,078	12096,84
665,265	12090,7
665,453	12225,86
665,64	12004,68
665,828	12016,97
666,015	11844,94
666,203	11849,04
666,39	11795,79
666,578	11597,14
666,765	11621,71
666,952	11605,33
667,14	11865,42
667,327	11699,53
667,515	11650,38
667,702	11437,39
667,889	11590,99
668,077	11562,32
668,264	11273,56
668,451	11203,93
668,638	11312,47
668,826	11271,51
669,013	11230,55
669,2	11222,36
669,388	11201,88
669,575	10851,67
669,762	10747,23
669,949	10814,81
670,136	11312,47
670,323	10560,86
670,511	10493,28
670,698	10366,31
670,885	10427,74
671,072	10437,98
671,259	10313,06
671,446	10483,04
671,633	10366,31
671,82	10354,02
672,007	10069,35
672,194	10149,22
672,381	9921,9
672,568	10014,06
672,755	10143,08
672,942	10091,88
673,129	9862,51
673,316	9837,93
673,503	9878,89
673,69	9991,53
673,877	10016,1
674,064	9905,51
674,251	9479,54
674,437	9446,77
674,624	9694,57
674,811	9487,73
674,998	9420,14
675,185	9538,93
675,372	9370,99
675,558	9268,59
675,745	9463,15
675,932	9219,44
676,119	9227,64
676,305	9301,36
676,492	9067,89
676,679	9031,03
676,865	9121,14
677,052	9117,04
677,239	9129,33
677,425	9047,41
677,612	9004,41
677,798	8988,02
677,985	8840,57
678,172	8510,85
678,358	8670,59
678,545	8535,42
678,731	8426,88
678,918	8430,98
679,104	8297,86
679,291	8578,43
679,477	8185,22
679,664	8275,33
679,85	8447,36
680,036	8199,55
680,223	7974,28
680,409	7941,51
680,596	7953,8
680,782	8170,88
680,968	7851,4
681,155	7935,37
681,341	7855,5
681,527	7826,82
681,714	7564,68
681,9	7761,29
682,086	7556,49
682,272	7630,22
682,459	7601,55
682,645	7757,19
682,831	7830,92
683,017	7732,62
683,204	7585,16
683,39	7486,86
683,576	7357,84
683,762	7355,79
683,948	7267,73
684,134	7372,18
684,32	7396,75
684,506	7333,26
684,693	7204,24
684,879	7040,4
685,065	7056,79
685,251	6974,87
685,437	6983,06
685,623	6890,9
685,809	6854,04
685,995	6802,84
686,181	6856,09
686,366	6786,46
686,552	6733,21
686,738	6665,63
686,924	6835,61
687,11	6501,79
687,296	6571,42
687,482	6483,36
687,668	6458,78
687,853	6436,25
688,039	6397,34
688,225	6665,63
688,411	6464,93
688,597	6446,49
688,782	6409,63
688,968	6204,83
689,154	6151,59
689,34	6036,9
689,525	6149,54
689,711	6049,19
689,897	6081,96
690,082	6016,42
690,268	5850,53
690,454	5868,97
690,639	5875,11
690,825	5938,6
691,01	5936,55
691,196	5676,46
691,381	5789,1
691,567	5858,73
691,753	5719,46
691,938	5809,58
692,124	5520,81
692,309	5254,58
692,494	5512,62
692,68	5508,52
692,865	5459,37
693,051	5287,34
693,236	5359,02
693,422	5281,2
693,607	5330,35
693,792	5213,62
693,978	5295,54
694,163	5244,34
694,348	5223,86
694,534	5170,61
694,719	5234,1
694,904	5215,66
695,089	5002,68
695,275	5098,93
695,46	5021,11
695,645	5074,35
695,83	4836,79
696,016	4976,05
696,201	4885,94
696,386	4939,19
696,571	4863,41
696,756	4799,93
696,941	4826,55
697,126	4629,95
697,311	4844,98
697,497	4836,79
697,682	4902,33
697,867	4591,03
698,052	4652,47
698,237	4517,31
698,422	4480,44
698,607	4482,49
698,792	4566,46
698,977	4476,35
699,162	4353,47
699,347	4545,98
699,531	4402,62
699,716	4332,99
699,901	4285,89
700,086	4341,18
700,271	4353,47
700,456	4253,12
700,641	4246,98
700,825	4330,94
701,01	4384,19
701,195	4113,86
701,38	4099,52
701,565	4251,07
701,749	4091,33
701,934	3962,31
702,119	4033,99
702,303	3997,12
702,488	3888,58
702,673	3894,72
702,857	3968,45
703,042	3896,77
703,227	3947,97
703,411	3841,48
703,596	3777,99
703,78	3804,61
703,965	3866,05
704,15	3661,26
704,334	3689,93
704,519	3763,65
704,703	3599,82
704,888	3567,05
705,072	3562,95
705,257	3487,18
705,441	3478,99
705,625	3806,66
705,81	3599,82
705,994	3575,24
706,179	3575,24
706,363	3581,39
706,547	3421,64
706,732	3458,51
706,916	3333,58
707,1	3319,25
707,285	3270,09
707,469	3098,06
707,653	3302,86
707,837	3347,92
708,022	3356,11
708,206	3397,07
708,39	3210,7
708,574	3112,4
708,759	3145,17
708,943	3182,03
709,127	3179,98
709,311	3112,4
709,495	3081,68
709,679	2995,67
709,863	3071,44
710,047	3024,34
710,231	3050,96
710,415	2860,5
710,6	3048,91
710,784	2973,14
710,968	2993,62
711,152	2997,71
711,336	2915,8
711,519	2926,04
711,703	3007,95
711,887	2889,17
712,071	2797,01
712,255	2786,77
712,439	2928,08
712,623	2954,71
712,807	2936,28
712,991	2962,9
713,174	2915,8
713,358	2811,35
713,542	2825,68
713,726	2764,25
713,91	2774,49
714,093	2657,75
714,277	2723,29
714,461	2678,23
714,645	2543,07
714,828	2424,28
715,012	2516,44
715,196	2518,49
715,379	2528,73
715,563	2436,57
715,747	2465,24
715,93	2465,24
716,114	2397,66
716,297	2444,76
716,481	2289,12
716,664	2422,24
716,848	2393,56
717,031	2295,26
717,215	2346,46
717,398	2317,79
717,582	2287,07
717,765	2309,6
717,949	2211,29
718,132	2274,78
718,316	2102,75
718,499	2291,17
718,682	2072,03
718,866	2149,86
719,049	2127,33
719,233	2174,43
719,416	2117,09
719,599	2166,24
719,782	2108,9
719,966	2119,14
720,149	2016,74
720,332	2051,55
720,515	2125,28
720,699	1967,59
720,882	2129,38
721,065	2076,13
721,248	2020,83
721,431	2016,74
721,615	2057,7
721,798	1945,06
721,981	1998,31
722,164	1850,85
722,347	1852,9
722,53	1787,36
722,713	1910,24
722,896	1813,99
723,079	1859,04
723,262	1875,43
723,445	1965,54
723,628	1736,17
723,811	1785,32
723,994	1818,08
724,177	1811,94
724,36	1805,8
724,543	1750,5
724,726	1783,27
724,909	1789,41
725,091	1727,97
725,274	1705,45
725,457	1678,82
725,64	1588,71
725,823	1752,55
726,006	1541,61
726,188	1650,15
726,371	1799,65
726,554	1539,56
726,737	1568,23
726,919	1598,95
727,102	1596,9
727,285	1723,88
727,467	1555,94
727,65	1695,21
727,833	1547,75
728,015	1480,17
728,198	1568,23
728,38	1594,86
728,563	1533,42
728,746	1445,35
728,928	1486,31
729,111	1418,73
729,293	1478,12
729,476	1498,6
729,658	1478,12
729,841	1490,41
730,023	1535,46
730,205	1457,64
730,388	1469,93
730,57	1607,14
730,753	1535,46
730,935	1607,14
731,117	1588,71
731,3	1437,16
731,482	1408,49
731,664	1379,82
731,847	1404,39
732,029	1412,59
732,211	1512,94
732,394	1289,71
732,576	1437,16
732,758	1467,88
732,94	1361,39
733,122	1402,35
733,305	1383,91
733,487	1306,09
733,669	1261,04
733,851	1287,66
734,033	1306,09
734,215	1330,67
734,397	1254,89
734,58	1345
734,762	1332,72
734,944	1277,42
735,126	1215,98
735,308	1207,79
735,49	1218,03
735,672	1117,68
735,854	1287,66
736,036	1205,74
736,218	1207,79
736,399	1226,22
736,581	1293,8
736,763	1375,72
736,945	1275,37
737,127	1125,87
737,309	1189,36
737,491	1263,08
737,672	1093,1
737,854	1170,93
738,036	1103,34
738,218	1197,55
738,4	1156,59
738,581	1127,92
738,763	1031,66
738,945	1101,3
739,127	1091,06
739,308	1046
739,49	1031,66
739,672	1089,01
739,853	1054,19
740,035	1054,19
740,216	1129,97
740,398	1107,44
740,58	1019,38
740,761	1089,01
740,943	1023,47
741,124	1060,34
741,306	1066,48
741,487	982,51
741,669	1150,45
741,85	1121,77
742,032	1023,47
742,213	978,42
742,394	935,41
742,576	982,51
742,757	1002,99
742,939	1041,9
743,12	1033,71
743,301	984,56
743,483	1050,1
743,664	908,79
743,845	1035,76
744,027	1076,72
744,208	970,23
744,389	898,55
744,57	900,59
744,752	943,6
744,933	953,84
745,114	933,36
745,295	957,94
745,476	951,79
745,657	921,07
745,839	806,39
746,02	990,7
746,201	900,59
746,382	966,13
746,563	820,72
746,744	904,69
746,925	779,76
747,106	812,53
747,287	837,11
747,468	894,45
747,649	830,96
747,83	835,06
748,011	1005,04
748,192	908,79
748,373	878,07
748,554	822,77
748,735	818,68
748,915	935,41
749,096	812,53
749,277	837,11
749,458	830,96
749,639	869,87
749,82	816,63
750	734,71
750,181	847,35
750,362	699,89
750,543	808,44
750,723	830,96
750,904	828,92
751,085	820,72
751,265	833,01
751,446	790
751,627	794,1
751,807	828,92
751,988	837,11
752,169	851,44
752,349	794,1
752,53	851,44
752,71	820,72
752,891	855,54
753,071	792,05
753,252	828,92
753,432	812,53
753,613	828,92
753,793	814,58
753,974	802,29
754,154	796,15
754,334	749,04
754,515	820,72
754,695	828,92
754,876	845,3
755,056	820,72
755,236	806,39
755,417	888,31
755,597	855,54
755,777	747
755,957	769,52
756,138	767,48
756,318	796,15
756,498	749,04
756,678	833,01
756,859	828,92
757,039	828,92
757,219	785,91
757,399	769,52
757,579	755,19
757,759	675,32
757,939	671,22
758,119	689,65
758,3	790
758,48	591,35
758,66	607,73
758,84	527,86
759,02	628,21
759,2	550,39
759,38	523,77
759,56	534,01
759,74	544,25
759,919	624,12
760,099	617,97
760,279	626,17
760,459	640,5
760,639	499,19
760,819	626,17
760,999	493,05
761,178	531,96
761,358	544,25
761,538	529,91
761,718	493,05
761,898	497,14
762,077	550,39
762,257	568,82
762,437	558,58
762,616	568,82
762,796	560,63
762,976	544,25
763,155	544,25
763,335	628,21
763,515	560,63
763,694	511,48
763,874	531,96
764,053	503,29
764,233	620,02
764,413	546,3
764,592	562,68
764,772	577,02
764,951	534,01
765,131	491
765,31	585,21
765,489	546,3
765,669	591,35
765,848	550,39
766,028	550,39
766,207	458,23
766,386	587,26
766,566	531,96
766,745	505,34
766,924	474,62
767,104	626,17
767,283	513,53
767,462	630,26
767,642	527,86
767,821	525,82
768	482,81
768,179	497,14
768,358	572,92
768,538	572,92
768,717	470,52
768,896	544,25
769,075	568,82
769,254	456,19
769,433	529,91
769,612	587,26
769,791	419,32
769,97	476,66
770,149	466,42
770,328	429,56
770,507	544,25
770,686	542,2
770,865	462,33
771,044	423,42
771,223	386,55
771,402	431,61
771,581	417,27
771,76	386,55
771,939	425,47
772,118	355,83
772,297	323,07
772,475	404,99
772,654	495,1
772,833	527,86
773,012	499,19
773,191	396,79
773,369	400,89
773,548	536,06
773,727	355,83
773,906	443,9
774,084	421,37
774,263	441,85
774,442	370,17
774,62	435,71
774,799	374,27
774,977	433,66
775,156	382,46
775,335	447,99
775,513	396,79
775,692	331,26
775,87	464,38
776,049	378,36
776,227	304,64
776,406	347,64
776,584	306,68
776,763	407,03
776,941	306,68
777,119	312,83
777,298	337,4
777,476	325,12
777,655	337,4
777,833	312,83
778,011	294,4
778,19	339,45
778,368	341,5
778,546	400,89
778,725	407,03
778,903	280,06
779,081	402,94
779,259	308,73
779,437	323,07
779,616	298,49
779,794	298,49
779,972	323,07
780,15	269,82
780,328	323,07
780,506	282,11
780,685	249,34
780,863	253,44
781,041	288,25
781,219	343,55
781,397	347,64
781,575	241,15
781,753	339,45
781,931	241,15
782,109	306,68
782,287	224,76
782,465	351,74
782,643	259,58
782,82	286,2
782,998	304,64
783,176	341,5
783,354	187,9
783,532	192
783,71	257,53
783,888	235
784,065	275,96
784,243	247,29
784,421	249,34
784,599	183,81
784,776	306,68
784,954	265,72
785,132	265,72
785,31	202,24
785,487	216,57
785,665	261,63
785,842	224,76
786,02	318,97
786,198	226,81
786,375	226,81
786,553	253,44
786,73	257,53
786,908	202,24
787,085	286,2
787,263	224,76
787,44	249,34
787,618	255,48
787,795	208,38
787,973	216,57
788,15	192
788,328	255,48
788,505	294,4
788,682	226,81
788,86	175,61
789,037	204,28
789,215	189,95
789,392	192
789,569	290,3
789,746	216,57
789,924	192
790,101	181,76
790,278	257,53
790,455	138,75
790,633	220,67
790,81	216,57
790,987	187,9
791,164	173,57
791,341	132,61
791,518	142,85
791,695	200,19
791,873	216,57
792,05	251,39
792,227	175,61
792,404	77,31
792,581	140,8
792,758	208,38
792,935	124,41
793,112	263,68
793,289	153,09
793,466	220,67
793,643	208,38
793,82	173,57
793,996	173,57
794,173	257,53
794,35	93,69
794,527	232,96
794,704	194,05
794,881	40,45
795,057	187,9
795,234	136,7
795,411	228,86
795,588	134,65
795,765	138,75
795,941	183,81
796,118	194,05
796,295	122,37
796,471	187,9
796,648	157,18
796,825	253,44
797,001	179,71
797,178	185,85
797,354	224,76
797,531	167,42
797,708	132,61
797,884	126,46
798,061	103,93
798,237	75,26
798,414	167,42
798,59	183,81
798,767	118,27
798,943	140,8
799,119	253,44
799,296	183,81
799,472	214,52
799,649	134,65
799,825	192
800,001	124,41
800,178	99,84
800,354	245,24
800,53	128,51
800,707	91,65
800,883	79,36
801,059	118,27
801,235	151,04
801,411	77,31
801,588	81,41
801,764	224,76
801,94	65,02
802,116	140,8
802,292	69,12
802,468	138,75
802,645	126,46
802,821	179,71
802,997	136,7
803,173	60,93
803,349	116,22
803,525	151,04
803,701	134,65
803,877	110,08
804,053	108,03
804,229	73,21
804,405	175,61
804,581	85,5
804,756	187,9
804,932	89,6
805,108	120,32
805,284	151,04
805,46	108,03
805,636	130,56
805,812	93,69
805,987	83,45
806,163	67,07
806,339	192
806,515	142,85
806,69	32,26
806,866	146,94
807,042	185,85
807,217	134,65
807,393	114,17
807,569	28,16
807,744	189,95
807,92	110,08
808,096	77,31
808,271	89,6
808,447	34,3
808,622	75,26
808,798	75,26
808,973	116,22
809,149	159,23
809,324	155,13
809,5	75,26
809,675	134,65
809,851	112,13
810,026	136,7
810,201	75,26
810,377	165,37
810,552	69,12
810,728	138,75
810,903	83,45
811,078	132,61
811,253	110,08
811,429	79,36
811,604	44,54
811,779	52,74
811,955	132,61
812,13	34,3
812,305	93,69
812,48	110,08
812,655	118,27
812,83	69,12
813,006	134,65
813,181	36,35
813,356	42,5
813,531	28,16
813,706	65,02
813,881	77,31
814,056	9,73
814,231	99,84
814,406	-37,38
814,581	22,02
814,756	54,78
814,931	81,41
815,106	93,69
815,281	97,79
815,456	105,98
815,631	50,69
815,805	50,69
815,98	-12,8
816,155	36,35
816,33	65,02
816,505	134,65
816,68	77,31
816,854	7,68
817,029	108,03
817,204	15,87
817,379	81,41
817,553	60,93
817,728	75,26
817,903	19,97
818,077	151,04
818,252	52,74
818,427	146,94
818,601	93,69
818,776	65,02
818,95	-20,99
819,125	148,99
819,299	60,93
819,474	91,65
819,648	77,31
819,823	95,74
819,997	134,65
820,172	34,3
820,346	15,87
820,521	46,59
820,695	19,97
820,87	28,16
821,044	103,93
821,218	122,37
821,393	122,37
821,567	26,11
821,741	3,58
821,916	34,3
822,09	108,03
822,264	110,08
822,438	30,21
822,613	83,45
822,787	75,26
822,961	67,07
823,135	69,12
823,309	93,69
823,483	58,88
823,658	103,93
823,832	116,22
824,006	17,92
824,18	79,36
824,354	54,78
824,528	40,45
824,702	146,94
824,876	32,26
825,05	67,07
825,224	40,45
825,398	38,4
825,572	-45,57
825,746	-14,85
825,92	97,79
826,093	11,78
826,267	83,45
826,441	44,54
826,615	56,83
826,789	60,93
826,963	118,27
827,136	32,26
827,31	44,54
827,484	19,97
827,658	19,97
827,831	58,88
828,005	67,07
828,179	-12,8
828,353	85,5
828,526	65,02
828,7	81,41
828,873	1,54
829,047	44,54
829,221	85,5
829,394	-23,04
829,568	85,5
829,741	83,45
829,915	-31,23
830,088	93,69
830,262	101,89
830,435	-31,23
830,609	93,69
830,782	112,13
830,956	3,58
831,129	-31,23
831,302	69,12
831,476	60,93
831,649	62,98
831,822	81,41
831,996	7,68
832,169	93,69
832,342	-88,57
832,516	77,31
832,689	-4,61
832,862	3,58
833,035	105,98
833,209	114,17
833,382	52,74
833,555	-29,18
833,728	69,12
833,901	-41,47
834,074	95,74
834,247	97,79
834,42	11,78
834,594	93,69
834,767	85,5
834,94	81,41
835,113	73,21
835,286	19,97
835,459	114,17
835,632	34,3
835,805	15,87
835,977	97,79
836,15	77,31
836,323	-29,18
836,496	52,74
836,669	-10,75
836,842	-12,8
837,015	46,59
837,188	36,35
837,36	110,08
837,533	171,52
837,706	44,54
837,879	60,93
838,051	36,35
838,224	71,17
838,397	32,26
838,569	122,37
838,742	89,6
838,915	73,21
839,087	7,68
839,26	108,03
839,433	17,92
839,605	167,42
839,778	-43,52
839,95	60,93
840,123	7,68
840,295	48,64
840,468	3,58
840,64	50,69
840,813	118,27
840,985	3,58
841,158	36,35
841,33	81,41
841,502	52,74
841,675	24,06
841,847	87,55
842,019	105,98
842,192	40,45
842,364	99,84
842,536	11,78
842,709	75,26
842,881	48,64
843,053	-16,9
843,225	19,97
843,398	60,93
843,57	52,74
843,742	46,59
843,914	101,89
844,086	69,12
844,258	-8,7
844,43	58,88
844,602	114,17
844,775	13,82
844,947	34,3
845,119	79,36
845,291	65,02
845,463	163,33
845,635	-29,18
845,807	19,97
845,979	50,69
846,15	40,45
846,322	38,4
846,494	3,58
846,666	-33,28
846,838	46,59
847,01	91,65
847,182	60,93
847,354	48,64
847,525	81,41
847,697	42,5
847,869	-23,04
848,041	19,97
848,212	118,27
848,384	-4,61
848,556	40,45
848,727	146,94
848,899	44,54
849,071	99,84
849,242	50,69
849,414	58,88
849,585	69,12
849,757	73,21
849,929	13,82
850,1	-23,04
850,272	81,41
850,443	34,3
850,615	95,74
850,786	56,83
850,958	11,78
851,129	-12,8
851,3	118,27
851,472	36,35
851,643	11,78
851,815	58,88
851,986	69,12
852,157	19,97
852,329	142,85
852,5	-12,8
852,671	108,03
852,842	91,65
853,014	3,58
853,185	44,54
853,356	-25,09
853,527	87,55
853,698	108,03
853,87	3,58
854,041	134,65
854,212	50,69
854,383	-2,56
854,554	34,3
854,725	52,74
854,896	50,69
855,067	32,26
855,238	-10,75
855,409	-20,99
855,58	44,54
855,751	89,6
855,922	62,98
856,093	93,69
856,264	9,73
856,435	-31,23
856,606	-0,51
856,777	11,78
856,948	77,31
857,118	38,4
857,289	-6,66
857,46	105,98
857,631	60,93
857,802	67,07
857,972	9,73
858,143	192
858,314	-29,18
858,484	26,11
858,655	-51,71
858,826	9,73
858,996	7,68
859,167	85,5
859,338	-4,61
859,508	19,97
859,679	-25,09
859,849	1,54
860,02	44,54
860,19	9,73
860,361	60,93
860,531	-12,8
860,702	122,37
860,872	11,78
861,043	3,58
861,213	46,59
861,384	52,74
861,554	34,3
861,724	-10,75
861,895	36,35
862,065	75,26
862,235	83,45
862,406	52,74
862,576	28,16
862,746	-12,8
862,916	40,45
863,087	83,45
863,257	17,92
863,427	-29,18
863,597	95,74
863,767	97,79
863,937	-70,14
864,108	101,89
864,278	7,68
864,448	-12,8
864,618	93,69
864,788	-100,86
864,958	67,07
865,128	-23,04
865,298	101,89
865,468	15,87
865,638	-41,47
865,808	89,6
865,978	116,22
866,148	-29,18
866,318	-25,09
866,487	91,65
866,657	26,11
866,827	75,26
866,997	71,17
867,167	130,56
867,337	44,54
867,506	48,64
867,676	40,45
867,846	13,82
868,016	-6,66
868,185	-35,33
868,355	3,58
868,525	56,83
868,694	13,82
868,864	69,12
869,034	54,78
869,203	-0,51
869,373	-12,8
869,542	69,12
869,712	-23,04
869,881	54,78
870,051	19,97
870,22	34,3
870,39	52,74
870,559	-94,72
870,729	-37,38
870,898	11,78
871,068	132,61
871,237	11,78
871,406	-27,14
871,576	48,64
871,745	17,92
871,914	3,58
872,084	-6,66
872,253	-29,18
872,422	-12,8
872,591	126,46
872,761	-41,47
872,93	386,55
873,099	19,97
873,268	79,36
873,437	-33,28
873,607	-88,57
873,776	3,58
873,945	32,26
874,114	-35,33
874,283	22,02
874,452	-23,04
874,621	-12,8
874,79	95,74
874,959	-4,61
875,128	-12,8
875,297	36,35
875,466	34,3
875,635	56,83
875,804	-0,51
875,973	3,58
876,142	93,69
876,31	-29,18
876,479	-4,61
876,648	32,26
876,817	-14,85
876,986	11,78
877,155	3,58
877,323	11,78
877,492	95,74
877,661	89,6
877,829	-23,04
877,998	-25,09
878,167	-8,7
878,335	-23,04
878,504	-90,62
878,673	-18,94
878,841	-66,05
879,01	11,78
879,178	5,63
879,347	1,54
879,515	3,58
879,684	7,68
879,852	19,97
880,021	-45,57
880,189	81,41
880,358	44,54
880,526	108,03
880,695	-37,38
880,863	69,12
881,031	17,92
881,2	17,92
881,368	-57,86
881,536	138,75
881,705	19,97
881,873	1,54
882,041	-29,18
882,21	-29,18
882,378	65,02
882,546	17,92
882,714	-29,18
882,882	28,16
883,05	1,54
883,219	-57,86
883,387	-4,61
883,555	-37,38
883,723	-25,09
883,891	36,35
884,059	-23,04
884,227	34,3
884,395	28,16
884,563	1,54
884,731	46,59
884,899	19,97
885,067	17,92
885,235	28,16
885,403	9,73
885,571	62,98
885,739	-0,51
